aX,aY,aZ,gX,gY,gZ
-0.231,-0.295,2.211,-10.559,215.210,-85.999
-0.237,-0.244,2.206,-20.813,300.842,-52.673
-0.281,-0.559,2.139,-36.560,344.482,-36.377
-0.321,-0.721,2.124,-78.857,429.749,19.226
-0.416,-0.671,2.284,-85.510,469.788,54.871
-0.515,-0.550,2.291,-39.001,586.243,104.919
-0.658,-0.027,1.596,-4.578,652.893,113.586
-0.719,0.288,1.077,16.052,699.280,104.248
-0.704,0.306,0.666,-70.251,735.229,39.063
-0.603,0.026,-0.016,-135.071,730.835,19.836
-0.627,-0.191,0.047,-200.073,698.059,0.427
-0.564,-0.292,0.186,-155.640,711.670,14.404
-0.458,-0.055,-0.359,153.748,728.638,66.956
-0.073,0.550,-1.681,296.692,645.081,109.497
0.226,0.840,-1.412,262.634,328.308,107.178
0.176,0.397,-0.263,221.313,235.413,54.016
-0.131,0.033,-0.246,179.321,255.066,6.226
-0.445,-0.175,-1.139,140.991,281.311,26.855
-0.418,0.012,-1.425,94.238,266.174,63.232
-0.344,0.197,-1.238,22.888,163.940,104.858
-0.370,0.409,-0.992,28.198,153.015,99.243
-0.423,0.432,-1.254,57.068,154.175,76.355
-0.447,0.322,-1.475,58.289,123.230,67.871
-0.363,0.300,-1.281,46.692,45.593,56.824
-0.077,0.483,-0.958,44.067,34.424,46.387
0.015,0.545,-0.976,40.283,43.030,17.151
0.091,0.531,-1.146,39.124,46.143,4.578
0.139,0.516,-1.267,40.161,44.678,0.854
0.190,0.630,-1.332,37.964,12.756,10.437
0.243,0.917,-1.291,37.109,-10.925,4.028
0.267,0.943,-1.119,22.705,-48.767,-26.550
0.233,0.734,-0.593,8.972,-46.936,-42.236
0.202,0.607,-0.529,-6.470,9.338,-53.955
0.180,0.591,-1.167,-9.094,29.907,-48.035
0.193,0.647,-1.354,-22.461,-10.681,-37.354
0.163,0.569,-1.292,-28.381,-42.542,-40.588
0.108,0.472,-1.258,-32.959,-72.083,-45.715
0.051,0.402,-1.161,-39.001,-135.498,-53.223
0.008,0.405,-0.969,-27.649,-156.860,-56.702
0.029,0.395,-1.011,10.742,-180.725,-57.617
0.134,0.334,-0.828,17.395,-185.974,-48.279
0.187,0.382,-0.833,20.630,-164.307,-29.724
0.226,0.607,-1.236,16.785,-165.222,-30.273
0.201,0.715,-1.381,-11.719,-236.511,-61.035
0.090,0.674,-1.190,-30.457,-286.255,-85.937
0.030,0.543,-1.057,-50.781,-351.135,-119.324
0.030,0.344,-0.996,-62.317,-368.835,-114.990
0.112,0.375,-0.908,-83.435,-401.306,-67.200
0.302,0.565,-0.661,-68.481,-416.199,-45.593
0.319,0.627,-0.591,-30.151,-428.101,-42.175
0.287,0.611,-0.488,13.550,-441.284,-86.121
0.190,0.325,-0.316,10.010,-436.707,-107.666
0.204,0.283,-0.269,-21.057,-457.947,-104.492
0.297,0.553,0.071,-18.311,-487.305,-98.083
0.281,0.629,0.307,27.222,-504.883,-122.192
0.073,0.407,0.540,28.259,-485.046,-145.691
-0.061,0.199,0.616,-18.005,-431.824,-163.696
-0.245,0.044,0.766,-31.311,-417.847,-151.001
-0.294,0.111,0.960,-21.240,-436.768,-135.864
-0.331,0.080,1.436,3.052,-437.866,-145.996
-0.307,-0.029,1.599,20.508,-415.894,-158.142
-0.199,-0.131,1.521,-12.939,-317.505,-154.663
-0.189,-0.055,1.406,-57.678,-269.043,-136.597
-0.248,0.145,1.435,-92.773,-250.549,-103.882
-0.458,0.080,1.900,-45.532,-259.705,-117.920
-0.502,-0.396,1.856,44.006,-209.167,-137.878
-0.295,-0.474,1.390,15.625,-171.692,-104.309
-0.172,0.011,1.309,-93.445,-114.319,-64.209
-0.188,0.397,1.210,-111.328,-97.412,-83.496
-0.290,0.175,1.340,-44.128,-106.445,-112.488
-0.380,-0.424,1.346,4.883,-101.746,-101.257
-0.299,-0.412,1.143,7.324,-72.754,-48.157
-0.221,-0.045,1.148,-25.024,-66.711,-31.006
-0.262,0.034,1.188,-33.325,-57.373,-28.381
-0.307,-0.107,1.158,-19.836,-61.584,-31.067
-0.283,-0.176,1.205,1.587,-63.171,-18.433
-0.201,-0.081,1.147,7.935,-54.932,-6.226
-0.177,0.008,1.148,6.531,-49.316,0.854
-0.160,0.030,1.205,-1.770,-34.546,-3.296
-0.120,0.025,1.061,-0.427,-18.066,-4.333
-0.099,0.058,0.919,-4.272,-7.568,-5.920
-0.098,0.052,0.966,-8.118,-13.977,-8.240
-0.104,0.060,0.950,-0.427,-16.357,-8.484
-0.110,0.092,0.947,4.517,-18.921,-7.935
-0.104,0.078,0.972,10.986,-16.968,-7.446
-0.107,0.031,0.955,8.972,-14.099,-7.263
-0.123,-0.001,0.964,-0.488,-9.827,-6.775
-0.118,0.062,0.952,-2.380,-8.057,-5.493
-0.126,0.083,1.003,-3.052,-8.057,-6.165
-0.145,0.049,1.010,0.427,-2.563,-8.850
-0.147,0.008,0.974,0.916,-0.549,-7.324
-0.139,0.017,0.974,2.197,2.197,-4.578
-0.140,0.011,0.953,4.028,1.587,-3.418
-0.142,0.038,0.956,6.042,-5.371,0.061
-0.143,0.061,1.002,6.531,-7.080,-0.488
-0.148,0.022,0.972,5.066,-1.526,-0.977
-0.141,-0.015,0.919,3.235,-0.732,-0.061
-0.146,-0.032,0.939,3.174,-1.648,1.099
-0.136,0.025,0.936,4.517,-2.991,3.418
-0.126,0.075,0.972,3.784,-5.981,5.066
-0.128,0.090,1.014,-1.587,-6.042,3.113
-0.144,0.061,1.006,-2.625,-4.150,2.625
-0.147,0.039,0.998,-2.869,-2.563,2.258
-0.162,-0.020,0.997,-4.578,-0.793,2.136
-0.168,-0.001,0.999,-4.944,1.343,4.456
-0.154,0.052,1.023,-1.648,0.366,4.883
-0.147,0.046,1.014,1.648,2.625,4.883
-0.141,0.032,0.952,-0.061,3.418,5.676
-0.135,0.050,0.970,-2.380,1.770,6.714
-0.134,0.091,0.991,-5.005,-0.793,6.653
-0.136,0.092,1.007,-5.310,-1.404,5.493
-0.141,0.072,1.020,-1.282,-0.122,3.357
-0.135,0.070,0.981,3.723,1.221,3.906
-0.126,0.084,0.956,9.583,1.221,2.380
-0.125,0.083,0.956,7.263,0.854,0.183
-0.138,0.063,0.966,-0.549,1.282,-3.418
-0.145,0.047,0.963,-3.479,-0.122,-2.380
-0.142,0.057,0.969,-3.479,-2.930,-0.244
-0.152,0.030,0.943,-2.075,-3.357,-0.366

-0.465,-0.202,1.853,19.775,179.749,51.575
-0.468,-0.160,1.734,20.325,261.902,76.660
-0.360,0.094,1.418,18.982,285.950,83.496
-0.321,0.193,1.367,14.465,304.504,75.989
-0.351,0.030,1.542,13.245,312.988,66.895
-0.370,-0.053,1.626,13.062,362.732,58.899
-0.450,-0.183,1.770,10.742,403.625,58.105
-0.492,-0.281,1.860,8.179,452.026,61.523
-0.490,-0.229,1.748,45.593,565.247,89.294
-0.340,0.160,1.103,76.477,595.825,93.628
-0.223,0.239,0.894,90.271,589.905,71.167
-0.077,0.157,0.773,68.665,576.355,51.331
-0.078,-0.048,0.747,16.235,580.872,29.785
-0.054,-0.273,0.309,7.385,593.445,50.476
0.093,-0.073,0.056,21.362,557.983,111.938
0.376,0.398,-0.031,37.781,516.418,112.366
0.449,0.508,-0.136,52.124,482.361,93.567
0.459,0.600,-0.319,74.707,425.293,36.194
0.148,0.347,-0.576,105.041,390.869,6.165
-0.051,0.027,-0.479,171.020,348.938,15.808
-0.278,0.033,-0.247,177.795,361.389,48.279
-0.271,0.268,-0.597,191.040,394.836,87.463
-0.212,0.631,-1.192,185.059,372.925,96.008
-0.189,0.797,-1.287,160.706,296.692,93.384
-0.202,1.015,-1.349,152.466,261.719,75.989
-0.265,0.958,-1.316,139.465,231.812,53.284
-0.328,0.862,-1.284,115.417,189.087,28.442
-0.246,0.726,-1.260,104.370,167.847,28.198
-0.180,0.751,-1.218,64.514,119.873,30.090
-0.151,0.788,-1.120,48.889,103.516,20.630
-0.114,0.737,-1.109,21.057,84.839,8.423
0.045,0.742,-0.980,14.648,75.073,8.972
0.071,0.712,-0.872,25.940,61.340,-6.409
0.018,0.550,-0.891,23.376,65.002,-13.977
0.005,0.538,-1.055,19.958,66.101,-11.902
0.021,0.550,-1.127,24.231,32.349,7.446
0.104,0.671,-0.990,22.034,18.250,13.428
0.136,0.704,-0.927,-1.465,20.630,3.662
0.099,0.628,-0.861,-12.939,24.048,-5.188
0.062,0.628,-0.812,-17.883,22.156,-19.897
0.044,0.637,-0.800,-12.634,28.687,-29.053
-0.002,0.627,-1.003,-4.578,26.306,-36.865
-0.131,0.705,-1.349,-7.874,-3.906,-35.095
-0.183,0.747,-1.412,-20.203,-84.595,-32.166
-0.269,0.850,-1.403,-27.100,-125.793,-28.931
-0.315,0.942,-1.226,-32.715,-164.917,-28.503
-0.376,0.925,-0.931,-11.292,-207.031,-48.950
-0.360,0.892,-0.938,-2.075,-210.205,-60.608
-0.309,0.920,-1.012,-17.212,-211.121,-74.036
-0.201,1.120,-1.171,-31.860,-215.637,-85.205
-0.222,1.178,-1.249,-28.687,-236.694,-132.874
-0.309,0.931,-1.424,-44.678,-269.836,-149.170
-0.288,0.821,-1.378,-92.102,-395.691,-131.897
-0.309,0.758,-1.060,-81.116,-461.792,-124.451
-0.322,0.566,-0.858,-64.636,-552.246,-136.475
-0.109,0.494,-0.332,-104.736,-572.327,-134.705
-0.040,0.712,-0.145,-139.587,-548.340,-161.438
-0.239,0.744,-0.164,-144.470,-520.081,-202.393
-0.475,0.549,-0.255,-158.264,-509.033,-261.719
-0.903,0.256,0.060,-170.715,-537.415,-260.986
-0.992,0.215,0.586,-185.669,-612.610,-235.046
-0.957,0.129,1.650,-152.527,-633.911,-235.107
-0.946,-0.057,2.014,-37.109,-593.994,-296.326
-0.795,-0.896,2.189,-15.625,-526.978,-321.106
-0.631,-1.107,2.130,-33.508,-443.848,-304.749
-0.291,-0.611,2.012,-89.661,-286.438,-184.631
-0.244,-0.345,1.842,-90.698,-231.323,-139.709
-0.299,-0.339,1.678,-55.908,-192.200,-127.930
-0.315,-0.647,1.619,-46.326,-192.993,-126.343
-0.228,-0.623,1.702,-39.185,-179.565,-90.454
-0.094,-0.393,1.651,-27.344,-157.043,-75.806
-0.117,-0.367,1.460,-4.211,-118.225,-71.228
-0.188,-0.572,1.188,-13.428,-117.249,-68.665
-0.175,-0.630,1.288,-52.490,-128.845,-38.025
-0.107,-0.539,1.409,-54.016,-114.929,-17.883
-0.107,-0.433,1.291,-29.907,-68.787,10.193
-0.081,-0.240,1.117,-29.602,-61.584,16.235
-0.030,-0.147,1.272,-49.377,-62.195,18.250
0.025,-0.036,1.295,-43.701,-47.485,14.343
0.048,0.032,1.132,-35.034,-25.574,4.150
0.002,0.019,0.953,-39.978,-23.682,-4.272
-0.020,-0.066,0.999,-46.448,-24.414,-10.071
-0.031,-0.091,1.081,-40.771,-24.170,-4.211
-0.045,-0.060,1.043,-26.855,-20.813,-1.221
-0.039,-0.052,0.960,-10.254,-22.888,-2.136
-0.008,-0.023,0.960,-14.954,-23.682,-2.075
-0.008,0.005,0.978,-34.485,-15.564,2.563
-0.021,0.017,1.033,-40.588,-13.916,3.418
-0.028,0.023,1.032,-33.142,-17.090,-0.977
-0.046,0.014,1.055,-23.376,-17.944,-3.845
-0.051,-0.001,1.031,-6.042,-14.038,-5.981
-0.054,-0.065,0.966,-6.897,-12.085,-4.639
-0.065,-0.078,0.998,-21.851,-11.108,2.502
-0.069,-0.023,1.020,-22.339,-10.193,6.958
-0.069,0.023,1.023,-16.357,-11.902,8.606
-0.076,-0.032,1.024,-0.610,-14.832,1.587
-0.083,-0.070,0.987,1.648,-12.329,0.061
-0.088,-0.063,0.952,-10.803,-9.766,5.676
-0.080,-0.002,0.993,-18.127,-10.620,7.202
-0.074,0.007,1.008,-17.761,-8.911,5.615
-0.080,-0.017,0.974,-13.367,-7.446,4.761
-0.074,0.001,0.946,-8.972,-5.676,6.042
-0.063,0.079,0.916,-10.132,-4.944,5.005
-0.078,0.065,0.927,-14.709,-9.399,0.000
-0.107,-0.001,0.996,-14.893,-11.292,0.061
-0.109,-0.010,0.993,-10.986,-8.728,3.418
-0.097,-0.010,0.984,-8.789,-7.629,4.578
-0.092,0.005,0.966,-6.714,-5.737,5.188
-0.086,0.052,0.936,-6.592,-3.906,4.028
-0.081,0.063,0.978,-7.996,-6.592,2.075
-0.079,0.051,1.012,-6.897,-6.836,-2.075
-0.099,0.020,0.992,-2.625,-4.761,-1.953
-0.106,0.009,0.964,1.892,-4.395,-0.183
-0.110,0.029,0.975,0.610,-5.432,0.732
-0.108,0.044,1.002,-1.892,-7.141,-0.244
-0.111,0.048,1.038,-3.235,-6.653,-1.892
-0.114,0.036,1.045,-3.479,-2.319,-4.761
-0.112,0.041,1.049,-4.456,1.221,-4.700
-0.120,0.042,1.020,-3.845,5.798,-5.615

-0.522,-0.331,1.732,33.875,405.029,95.764
-0.559,-0.377,1.750,44.678,483.948,141.602
-0.552,-0.034,1.666,57.312,534.546,165.955
-0.554,0.139,1.442,76.294,621.155,175.232
-0.336,0.417,0.745,85.022,629.883,168.640
-0.168,0.408,0.611,74.036,579.346,134.094
-0.109,-0.010,0.817,68.542,560.425,118.958
-0.107,-0.066,0.844,69.031,564.026,119.385
-0.070,0.138,0.650,86.853,607.300,144.043
0.025,0.521,-0.135,89.172,611.816,137.024
0.083,0.464,-0.439,71.106,527.100,95.642
0.161,0.244,-0.349,65.063,460.876,80.994
0.153,0.220,-0.083,83.435,395.874,64.880
0.033,0.276,-0.146,112.000,406.860,60.242
-0.011,0.360,-0.393,135.010,419.067,62.378
-0.036,0.453,-0.561,146.240,396.667,70.862
-0.063,0.624,-0.881,157.715,373.352,72.083
-0.099,0.610,-0.945,160.400,312.439,70.923
-0.149,0.432,-0.806,162.048,279.846,80.261
-0.128,0.601,-0.738,161.438,265.381,112.854
-0.198,1.048,-1.077,148.804,278.564,105.103
-0.263,1.102,-1.199,121.826,241.638,56.641
-0.378,1.207,-1.432,114.868,203.247,36.316
-0.432,1.156,-1.450,99.365,157.104,19.897
-0.489,0.991,-1.229,54.749,71.289,13.916
-0.468,0.844,-0.783,46.875,61.523,26.306
-0.432,0.889,-0.724,23.132,88.318,36.926
-0.371,0.918,-0.924,11.597,98.145,31.738
-0.330,0.932,-1.006,-16.479,68.298,22.888
-0.240,0.877,-0.889,-30.090,44.373,21.667
-0.188,0.853,-0.845,-23.865,18.677,18.799
-0.048,0.753,-0.814,-6.348,10.925,12.939
0.015,0.703,-0.785,4.395,3.540,6.226
0.118,0.666,-0.705,3.845,-4.700,-3.723
0.170,0.698,-0.700,1.465,-3.723,-6.470
0.196,0.740,-0.741,-1.953,3.784,-18.616
0.155,0.713,-0.796,-4.089,2.258,-27.649
0.098,0.672,-0.802,-8.118,-3.906,-36.926
-0.012,0.636,-0.871,-9.460,-6.653,-35.339
-0.033,0.638,-0.890,-12.329,-25.818,-26.917
-0.026,0.655,-0.844,-15.076,-39.246,-23.560
-0.012,0.692,-0.831,-20.569,-63.171,-21.057
-0.008,0.837,-0.902,-24.353,-72.632,-24.048
-0.039,0.893,-0.994,-38.269,-93.384,-40.588
-0.133,0.875,-1.043,-51.514,-110.291,-50.781
-0.175,0.801,-0.964,-60.730,-146.790,-62.988
-0.207,0.624,-0.875,-52.429,-159.851,-61.768
-0.181,0.611,-0.904,-45.471,-171.326,-56.519
-0.020,0.772,-0.981,-45.227,-200.867,-45.898
0.067,0.905,-0.962,-52.612,-219.543,-47.546
0.115,0.991,-0.864,-62.744,-251.526,-77.759
0.102,0.751,-0.719,-52.490,-259.583,-97.412
0.092,0.571,-0.776,-31.982,-261.414,-103.821
0.106,0.584,-0.903,-34.302,-264.343,-96.008
0.118,0.652,-0.957,-32.104,-291.077,-101.257
0.167,0.694,-0.964,-37.659,-316.895,-110.596
0.160,0.727,-0.913,-80.078,-394.653,-131.042
0.046,0.666,-0.717,-90.942,-447.205,-146.851
-0.046,0.558,-0.567,-73.059,-557.922,-182.617
-0.154,0.323,-0.090,-72.449,-598.389,-195.618
-0.158,0.267,0.181,-107.605,-604.431,-203.064
-0.109,0.249,0.543,-111.633,-572.205,-202.332
-0.140,0.233,0.642,-107.056,-532.471,-202.759
-0.337,0.044,0.703,-95.276,-465.515,-204.529
-0.400,-0.072,0.788,-94.421,-450.928,-200.256
-0.394,-0.119,0.999,-117.859,-463.806,-177.002
-0.209,0.154,1.638,-113.892,-468.140,-167.236
-0.188,0.129,1.867,-21.362,-404.419,-203.552
-0.348,-0.562,1.545,19.775,-339.478,-216.248
-0.396,-0.735,1.209,3.052,-242.554,-149.719
-0.249,-0.247,1.122,-40.649,-228.088,-101.624
-0.126,0.187,1.265,-74.097,-226.379,-75.439
-0.235,0.319,1.448,-55.298,-228.882,-105.713
-0.388,-0.083,1.468,-14.832,-221.374,-158.386
-0.456,-0.731,1.452,-10.193,-206.299,-143.799
-0.364,-0.664,1.443,-39.917,-149.414,-57.983
-0.206,-0.032,1.447,-61.646,-127.686,-29.480
-0.241,-0.065,1.533,-62.744,-126.099,-46.936
-0.350,-0.645,1.606,-38.757,-122.742,-47.668
-0.334,-0.651,1.483,-10.376,-107.300,-25.269
-0.179,-0.156,1.208,-5.554,-73.975,18.005
-0.112,0.003,1.253,-32.166,-70.374,15.320
-0.098,0.054,1.284,-47.424,-49.561,-2.563
-0.148,-0.007,0.996,-39.856,-37.781,-6.348
-0.129,-0.013,0.989,-42.786,-43.274,0.427
-0.060,0.097,1.021,-37.964,-40.222,4.761
-0.059,0.141,1.005,-20.386,-34.058,2.136
-0.099,0.119,1.158,-13.672,-33.325,-0.732
-0.123,0.121,1.190,2.441,-18.250,1.160
-0.139,0.172,1.151,8.301,-12.634,1.343
-0.138,0.133,1.141,12.512,-9.216,-4.761
-0.157,-0.000,1.093,10.620,-6.531,-4.883
-0.164,-0.016,1.074,5.798,-2.991,-1.587
-0.164,0.002,1.067,-3.174,2.258,5.676
-0.147,0.058,1.063,-1.892,3.540,6.470
-0.136,0.069,1.033,0.549,6.165,4.883
-0.130,0.077,1.018,-1.831,7.324,3.845
-0.136,0.059,0.998,-1.343,9.827,0.916
-0.140,0.024,0.959,1.404,9.399,0.671
-0.137,0.016,0.927,-0.366,6.836,2.014
-0.134,-0.000,0.937,-5.371,3.296,2.808
-0.132,0.005,0.984,-8.911,1.221,3.357
-0.140,0.027,0.937,-6.409,5.554,3.479
-0.132,0.041,0.957,-5.676,4.028,3.540
-0.129,0.045,0.986,-1.465,3.174,2.686
-0.137,0.027,0.929,-1.038,3.296,2.991
-0.133,0.042,0.957,-9.644,-0.610,5.676
-0.127,0.094,0.926,-9.583,0.488,4.883
-0.130,0.079,0.946,-5.188,-2.258,-1.709
-0.144,0.015,0.979,-1.160,-0.183,-2.686
-0.137,0.030,0.940,1.160,1.892,1.099
-0.127,0.074,0.972,-0.977,0.183,1.648
-0.133,0.067,0.959,-0.671,0.427,0.671
-0.135,0.048,0.954,0.916,-1.953,-0.671
-0.128,0.054,0.966,2.014,-2.441,-0.610
-0.128,0.052,0.960,1.282,-4.456,-1.953
-0.129,0.042,1.017,-0.427,-4.883,-1.831
-0.129,0.044,1.028,-0.183,-0.427,-1.038
-0.142,0.045,1.038,0.305,1.953,-1.221

-0.310,1.208,-0.802,73.242,117.859,61.707
-0.360,1.125,-0.666,54.626,101.990,14.160
-0.529,0.971,-0.972,46.753,106.934,9.827
-0.522,0.976,-1.106,10.864,72.388,25.879
-0.350,0.979,-0.999,-10.071,47.058,32.227
-0.252,0.952,-0.852,-32.043,15.381,28.381
-0.101,0.711,-0.635,-22.400,9.216,22.522
-0.050,0.598,-0.591,-7.690,6.775,19.104
-0.005,0.571,-0.599,6.775,15.198,15.320
0.042,0.687,-0.853,7.629,20.752,9.705
0.050,0.716,-0.982,0.000,10.803,-3.967
0.096,0.617,-0.823,-6.104,-2.258,-6.287
0.144,0.531,-0.608,1.160,-6.836,-0.244
0.180,0.540,-0.515,10.071,4.028,2.747
0.150,0.640,-0.620,18.738,18.738,-1.465
-0.021,0.803,-0.955,16.541,15.503,-7.446
-0.109,0.839,-1.048,6.836,3.418,-11.536
-0.143,0.842,-0.871,-19.165,-30.823,-11.108
-0.108,0.802,-0.739,-23.376,-39.917,-10.254
-0.084,0.777,-0.675,-19.409,-42.725,-12.817
-0.089,0.801,-0.642,-19.104,-43.518,-18.433
-0.118,0.821,-0.710,-20.569,-47.424,-34.485
-0.158,0.850,-0.859,-23.437,-57.678,-41.138
-0.170,0.848,-0.878,-27.588,-81.665,-50.659
-0.159,0.822,-0.991,-29.419,-90.210,-52.368
-0.129,0.849,-1.075,-43.152,-120.850,-50.232
-0.109,0.899,-1.081,-54.626,-146.301,-53.650
-0.136,0.852,-1.029,-71.350,-198.181,-69.092
-0.112,0.736,-0.938,-75.684,-221.619,-74.280
-0.088,0.709,-0.898,-79.346,-256.836,-77.454
-0.055,0.708,-0.981,-77.026,-273.865,-78.491
-0.045,0.741,-0.980,-76.172,-326.294,-85.510
-0.062,0.663,-0.824,-76.233,-351.135,-91.858
-0.045,0.544,-0.750,-76.111,-369.751,-94.482
0.065,0.517,-0.677,-85.266,-397.888,-79.163
0.133,0.615,-0.676,-90.210,-410.400,-73.181
0.178,0.681,-0.679,-79.468,-439.209,-94.299
0.052,0.578,-0.644,-68.604,-459.228,-116.638
-0.063,0.398,-0.528,-34.912,-502.747,-152.344
-0.162,0.202,-0.163,-41.565,-517.578,-154.358
-0.132,0.270,-0.015,-76.721,-541.748,-145.264
-0.099,0.365,0.486,-72.815,-560.608,-149.719
-0.090,0.284,0.959,-60.608,-560.181,-176.636
-0.028,0.028,1.461,-42.908,-509.460,-187.805
-0.054,-0.100,1.306,0.122,-380.859,-191.528
-0.284,-0.325,0.838,4.028,-352.539,-186.401
-0.331,-0.392,0.925,-46.265,-386.597,-162.598
-0.199,-0.396,1.580,-69.031,-398.499,-142.212
-0.123,-0.363,1.726,-70.190,-316.101,-100.586
0.011,-0.174,1.616,-65.430,-257.874,-82.825
0.058,-0.000,1.619,-60.364,-219.238,-70.923
0.019,-0.034,1.574,-25.024,-182.068,-79.468
-0.046,-0.215,1.459,-4.883,-167.297,-85.510
-0.087,-0.333,1.340,-3.601,-141.113,-65.430
-0.039,-0.149,1.265,-19.226,-131.104,-46.997
0.013,0.050,1.328,-46.021,-123.718,-33.142
0.051,0.157,1.475,-39.001,-123.657,-42.419
0.016,0.005,1.488,-2.014,-104.126,-62.317
-0.028,-0.219,1.314,8.240,-83.130,-56.213
-0.006,-0.155,1.183,1.526,-54.077,-27.771
0.039,0.090,1.205,-11.108,-54.687,-22.644
0.024,0.084,1.246,-16.602,-52.124,-33.691
-0.037,-0.080,1.113,-10.132,-48.523,-34.668
-0.016,-0.071,1.111,-13.184,-49.622,-19.104
0.047,0.110,1.158,-15.564,-44.434,-14.526
0.055,0.133,1.079,-12.146,-35.217,-16.602
0.045,0.089,1.015,-10.376,-28.015,-23.926
0.031,-0.002,1.001,-12.268,-25.452,-22.034
0.018,-0.003,0.954,-8.240,-19.043,-13.916
0.018,0.032,1.005,-7.507,-22.949,-10.498
0.025,0.074,1.067,-1.587,-22.278,-8.118
0.025,0.091,1.038,2.930,-17.517,-9.949
0.031,0.078,1.017,4.883,-11.780,-12.512
0.050,0.040,1.013,4.028,-9.399,-12.817
0.039,0.007,1.002,0.122,-3.540,-11.841
0.000,-0.044,0.968,-0.854,-2.441,-8.972
-0.000,-0.028,0.993,-0.244,-3.723,-4.639
-0.003,-0.002,0.989,13.245,-4.028,1.099
0.002,0.040,0.930,21.545,-3.906,2.563
0.004,0.053,0.941,20.142,-8.728,3.967
-0.001,0.030,0.976,17.578,-9.888,3.906
-0.008,0.011,0.944,18.250,-9.155,6.348
-0.040,0.000,0.883,15.625,-12.207,7.935
-0.051,-0.003,0.890,1.221,-23.499,7.690
-0.058,-0.008,0.979,-9.521,-27.893,5.859
-0.061,-0.020,1.042,-14.709,-30.396,4.028
-0.066,-0.001,1.079,-7.080,-23.926,6.165
-0.073,0.026,1.082,-4.883,-18.005,7.385
-0.079,0.045,1.057,-3.296,-8.606,3.418
-0.070,0.047,1.022,-6.104,-8.545,0.854
-0.061,0.039,1.056,-11.902,-10.742,-1.221
-0.061,0.052,1.029,-9.705,-7.568,-1.038
-0.063,0.066,0.982,-3.601,-7.874,-1.465
-0.035,0.071,1.054,-4.272,-12.573,-2.625
-0.031,0.055,1.092,-0.305,-9.583,-4.333
-0.052,0.032,1.037,2.258,-5.432,-4.272
-0.064,0.022,1.030,0.977,-2.014,-2.136
-0.065,0.032,1.031,1.709,-0.549,-0.732
-0.053,0.034,1.040,4.456,-0.061,-0.610
-0.054,-0.012,0.982,12.939,2.502,-2.869
-0.061,-0.034,0.948,12.939,2.991,-2.563
-0.058,-0.039,0.955,3.113,0.000,2.441
-0.040,0.034,1.018,-0.854,-0.427,5.005
-0.035,0.060,1.021,1.526,2.075,3.296
-0.047,0.028,0.925,3.052,2.686,1.465
-0.043,0.018,0.927,-2.441,-2.747,0.122
-0.057,0.002,0.965,-3.174,-2.441,-0.427
-0.066,-0.000,0.930,-1.770,-2.930,-0.244
-0.066,0.005,0.990,-3.906,-7.263,0.488
-0.065,0.008,1.007,-2.502,-7.080,1.892
-0.071,0.023,0.974,-3.174,-6.409,2.625
-0.066,0.034,0.992,-4.639,-6.958,2.869
-0.066,0.033,1.002,-3.418,-4.822,1.221
-0.083,0.010,1.005,-2.747,-3.784,1.221
-0.085,0.014,1.000,-2.136,-3.540,3.845
-0.084,0.025,1.027,-3.235,-4.089,4.639
-0.086,0.020,1.039,-1.404,-1.160,6.104
-0.080,0.052,1.006,0.061,0.000,6.531
-0.076,0.054,0.992,0.427,-1.343,4.211

-0.372,-0.148,2.344,-19.836,167.236,27.344
-0.405,-0.003,2.300,19.653,311.340,47.852
-0.549,0.122,1.900,39.185,376.099,46.997
-0.631,0.051,1.758,52.368,465.942,48.767
-0.609,-0.015,1.665,48.218,491.089,56.030
-0.550,-0.030,1.800,27.283,536.377,59.326
-0.527,0.193,1.665,40.344,577.820,52.673
-0.455,0.319,1.144,70.435,615.234,38.696
-0.337,0.381,0.459,96.497,597.473,5.310
-0.019,0.248,-0.654,73.975,531.799,-7.446
0.191,0.057,-0.667,-8.484,324.341,-14.648
0.445,-0.205,0.028,-30.701,249.084,-1.953
0.521,-0.131,0.099,-16.663,210.327,54.810
0.646,0.291,0.188,-8.118,198.120,73.181
0.688,0.453,0.310,40.161,202.270,35.950
0.541,0.146,-0.059,103.760,227.417,10.254
0.408,-0.116,-0.242,156.799,240.967,8.789
0.313,-0.257,-0.209,172.668,225.220,60.059
0.329,-0.098,0.060,161.133,227.844,81.665
0.362,0.097,0.059,118.774,276.855,76.721
0.365,0.306,-0.381,102.905,307.495,61.401
0.369,0.376,-0.607,97.473,324.463,51.819
0.375,0.383,-0.787,116.028,314.148,55.908
0.386,0.465,-0.876,133.179,302.185,63.416
0.375,0.587,-1.032,139.893,281.372,55.542
0.449,0.742,-1.450,140.320,253.418,43.640
0.460,0.719,-1.409,120.666,185.852,21.729
0.322,0.535,-1.181,106.812,172.424,22.278
0.248,0.531,-1.241,76.965,144.653,40.283
0.196,0.549,-1.169,63.354,117.004,44.312
0.183,0.542,-1.088,39.856,87.036,45.349
0.248,0.589,-1.088,23.315,82.947,42.480
0.288,0.569,-1.129,7.324,76.721,36.621
0.312,0.533,-1.227,-7.996,45.654,31.128
0.343,0.485,-1.204,-8.972,20.142,31.189
0.375,0.454,-0.974,-11.108,-0.977,29.175
0.432,0.394,-0.720,-13.672,8.118,27.466
0.430,0.410,-0.809,-11.292,13.000,25.146
0.408,0.499,-1.041,-6.104,0.793,23.682
0.445,0.563,-0.995,2.258,-23.071,19.653
0.518,0.630,-0.729,3.723,-21.667,13.672
0.495,0.596,-0.730,5.432,-14.587,5.005
0.459,0.540,-0.932,13.123,-18.799,-6.531
0.468,0.541,-0.967,20.020,-32.471,-8.118
0.453,0.526,-0.962,30.273,-52.612,-13.184
0.380,0.494,-1.020,31.738,-57.800,-13.611
0.353,0.500,-1.059,34.485,-79.163,-6.287
0.294,0.506,-0.995,38.269,-97.351,-0.610
0.307,0.542,-0.905,41.626,-132.202,12.024
0.402,0.750,-0.876,38.696,-141.968,9.705
0.446,0.825,-0.909,25.085,-158.569,-19.043
0.531,0.882,-0.779,19.470,-163.574,-35.767
0.546,0.901,-0.746,18.311,-160.339,-51.575
0.518,0.796,-0.802,20.874,-152.893,-85.388
0.471,0.691,-0.853,17.578,-162.964,-99.426
0.413,0.547,-0.863,-5.432,-223.511,-110.046
0.408,0.344,-0.517,-13.916,-255.615,-104.919
0.500,0.344,-0.315,-19.348,-253.052,-90.637
0.716,0.564,-0.405,-20.020,-227.905,-92.590
0.709,0.638,-0.545,-10.864,-209.778,-125.488
0.449,0.455,-0.639,-2.258,-222.351,-144.775
0.394,0.321,-0.571,-37.903,-280.640,-160.339
0.505,0.244,-0.091,-75.195,-309.631,-157.776
0.538,0.264,0.026,-94.482,-327.759,-155.884
0.333,0.199,-0.004,-78.613,-332.458,-163.513
0.144,0.083,0.000,-64.880,-342.163,-171.631
-0.042,-0.077,0.292,-73.303,-375.122,-161.072
-0.015,-0.062,0.549,-82.031,-392.517,-146.240
0.041,-0.031,0.804,-71.167,-404.175,-138.794
0.100,-0.097,1.187,-60.486,-393.127,-147.583
0.106,-0.158,1.339,-55.298,-336.792,-161.011
0.017,-0.318,1.376,-59.143,-292.603,-159.363
0.002,-0.332,1.254,-77.454,-229.919,-130.188
-0.008,-0.215,1.206,-81.055,-224.060,-114.380
-0.020,-0.224,1.262,-72.876,-213.074,-94.604
0.138,-0.082,1.322,-74.585,-206.848,-85.388
0.200,0.043,1.398,-50.171,-201.538,-93.933
0.072,-0.185,1.584,-26.672,-189.514,-111.389
-0.021,-0.374,1.567,-14.709,-137.329,-110.779
-0.008,-0.332,1.266,-21.057,-112.427,-88.928
0.059,-0.181,1.158,-28.809,-99.915,-66.772
0.084,-0.023,1.122,-30.029,-97.961,-54.993
0.046,-0.065,1.184,-26.672,-101.013,-63.110
-0.005,-0.187,1.282,-19.958,-100.342,-73.364
-0.016,-0.377,1.360,-18.066,-87.158,-62.988
0.009,-0.334,1.348,-28.809,-49.744,-26.917
0.024,-0.175,1.205,-30.579,-34.973,-15.686
0.016,-0.137,1.122,-23.743,-30.884,-12.451
0.072,-0.153,1.155,-23.254,-36.804,-11.719
0.105,-0.145,1.158,-15.442,-29.114,-0.732
0.104,-0.115,0.993,-15.381,-19.775,4.150
0.110,-0.095,0.992,-30.701,-13.367,11.536
0.118,-0.008,1.066,-30.518,-9.705,14.709
0.124,0.051,1.017,-13.916,-2.197,15.442
0.123,0.113,0.912,-5.676,-6.042,10.620
0.096,0.070,0.884,-1.160,-12.695,3.601
0.078,0.016,0.868,-6.714,-25.269,-4.211
0.082,-0.046,0.941,-12.695,-29.846,-3.357
0.074,-0.052,0.992,-14.526,-27.344,-0.610
0.045,-0.066,1.002,-13.550,-23.315,0.488
0.068,-0.049,1.036,-16.724,-21.484,6.409
0.088,-0.006,1.025,-13.306,-16.602,9.338
0.066,0.026,0.921,-4.150,-12.207,11.292
0.068,0.030,0.950,-9.399,-21.423,9.094
0.076,-0.007,1.054,-13.672,-28.748,7.690
0.043,-0.039,1.041,-2.808,-19.409,9.216
0.027,-0.033,0.962,3.967,-12.573,10.132
0.038,-0.009,0.961,-10.010,-14.038,12.207
0.052,0.017,1.090,-17.334,-13.367,12.146
0.036,-0.014,1.094,-7.019,-6.287,11.719
0.006,-0.060,1.039,2.686,-4.578,12.756
0.009,-0.051,0.998,10.559,-2.258,17.273
0.028,0.013,0.980,7.080,-2.625,17.090
0.035,0.023,1.010,-1.526,-2.747,11.292
0.016,0.013,0.974,-1.953,-1.465,8.972
0.005,-0.014,0.942,-2.869,-2.625,7.202
0.016,-0.027,0.975,-10.376,-9.949,8.362
0.043,0.026,1.030,-9.705,-8.850,8.911
0.044,0.047,1.014,-3.906,-6.531,5.310

-0.626,-0.272,2.461,5.737,215.210,6.775
-0.711,-0.321,2.718,43.213,353.088,29.236
-0.916,-0.126,2.671,68.542,443.787,41.809
-1.038,-0.036,2.496,102.295,617.249,54.138
-1.244,0.036,2.123,111.389,691.040,57.739
-1.284,0.080,1.812,119.446,809.631,68.665
-1.121,0.270,1.066,116.577,839.844,67.017
-0.931,0.443,0.597,122.986,844.055,57.373
-0.668,0.645,0.064,171.082,767.700,18.250
-0.291,0.603,-0.650,194.031,691.711,-10.864
-0.217,0.286,-0.680,190.063,530.823,-34.058
-0.098,-0.108,-0.741,177.185,476.929,-4.761
-0.039,0.007,-0.876,156.616,398.010,82.458
0.064,0.313,-0.864,145.630,354.797,101.379
0.089,0.402,-0.751,132.080,273.987,89.844
0.048,0.343,-0.604,139.099,246.826,76.233
-0.016,0.255,-0.488,154.358,229.126,65.552
-0.118,0.122,-0.458,212.830,236.389,57.373
-0.337,0.084,-0.884,238.953,241.821,67.871
-0.400,0.215,-1.141,238.037,206.848,105.347
-0.265,0.692,-1.398,218.323,179.565,120.850
-0.130,0.887,-1.399,186.279,149.658,109.131
-0.058,0.955,-1.353,166.870,132.996,90.698
-0.082,0.918,-1.345,126.343,90.881,63.782
-0.130,0.979,-1.323,109.680,66.895,59.753
-0.141,1.043,-1.242,70.251,36.377,40.100
-0.174,0.973,-1.098,56.763,34.302,28.748
-0.179,0.931,-1.102,49.072,31.738,23.193
-0.166,0.929,-1.142,32.898,6.470,22.339
-0.048,0.935,-1.097,19.165,-13.611,20.752
0.019,0.893,-0.960,-6.958,-35.828,14.893
0.162,0.693,-0.751,-13.855,-34.973,15.137
0.211,0.658,-0.718,-25.513,-25.818,19.165
0.234,0.672,-0.806,-29.053,-18.677,14.343
0.217,0.656,-0.908,-38.452,-13.062,-1.831
0.236,0.581,-0.981,-42.358,-18.433,-6.104
0.268,0.541,-0.890,-30.457,-30.701,-9.399
0.294,0.434,-0.635,-17.456,-30.151,-11.536
0.292,0.421,-0.620,12.024,-14.343,-12.939
0.261,0.522,-0.837,22.949,-9.705,-13.062
0.236,0.580,-0.948,29.236,-13.733,-14.038
0.208,0.632,-1.014,33.691,-39.795,-14.587
0.135,0.726,-1.056,35.400,-55.054,-14.648
0.106,0.746,-1.041,36.133,-91.797,-17.700
0.096,0.810,-0.915,33.569,-110.413,-22.095
0.093,0.831,-0.819,34.119,-126.709,-38.696
0.071,0.829,-0.768,37.476,-121.521,-45.471
0.073,0.860,-0.839,36.194,-105.591,-46.692
0.115,1.020,-1.091,31.677,-104.431,-47.729
0.112,1.115,-1.184,24.658,-131.714,-72.266
0.065,1.055,-1.165,15.930,-158.752,-94.055
0.045,0.964,-1.116,0.427,-187.805,-111.938
0.032,0.942,-1.112,-30.090,-237.610,-127.747
0.016,0.916,-1.062,-45.593,-266.907,-135.681
-0.008,0.818,-0.977,-89.661,-343.689,-148.682
-0.018,0.612,-0.760,-100.281,-381.103,-146.912
0.018,0.563,-0.589,-112.549,-442.383,-137.939
0.115,0.597,-0.162,-120.361,-462.830,-140.869
0.084,0.596,0.004,-116.089,-478.394,-177.490
-0.145,0.383,0.268,-114.197,-485.718,-202.454
-0.304,0.205,0.396,-120.666,-511.414,-224.548
-0.561,-0.261,0.824,-130.127,-528.748,-212.891
-0.495,-0.348,1.168,-141.357,-539.978,-153.748
-0.182,-0.044,1.560,-112.305,-515.625,-136.597
-0.139,0.031,1.512,-48.645,-427.246,-163.147
-0.305,-0.229,1.250,-38.574,-381.958,-174.377
-0.378,-0.325,1.217,-49.438,-351.196,-166.626
-0.356,-0.318,1.307,-88.318,-342.041,-123.413
-0.223,-0.074,1.629,-84.106,-340.454,-112.000
-0.192,-0.066,1.726,-48.828,-292.908,-123.291
-0.165,-0.349,1.781,-39.856,-256.592,-123.169
-0.136,-0.377,1.691,-35.889,-183.105,-78.430
-0.064,-0.062,1.346,-31.860,-152.649,-55.054
-0.071,0.083,1.179,-18.616,-136.108,-52.490
-0.079,-0.031,1.224,-20.264,-147.583,-65.063
-0.091,-0.232,1.423,-31.250,-144.836,-62.073
-0.112,-0.344,1.642,-30.640,-119.324,-40.894
-0.084,-0.204,1.556,-16.174,-66.650,-15.930
0.009,-0.057,1.335,-13.428,-53.040,-14.893
0.039,-0.020,1.241,-19.958,-33.081,-9.460
0.058,0.011,1.130,-23.376,-25.452,-5.859
0.048,0.036,1.111,-22.339,-20.203,-1.221
0.037,0.123,1.065,-7.324,-17.212,7.141
0.058,0.160,1.126,-3.479,-23.987,8.179
0.081,0.167,1.181,8.179,-25.085,4.272
0.063,0.148,1.078,13.245,-14.832,1.953
0.057,0.144,0.995,6.287,-4.028,-1.770
0.056,0.113,1.048,-1.160,-4.883,-3.113
0.038,0.087,1.027,-6.592,-0.366,-2.747
0.031,0.045,0.977,-6.531,-3.357,-1.465
0.032,0.042,1.014,0.854,-6.653,1.160
0.008,0.045,0.966,3.052,-5.310,2.197
0.015,0.044,0.978,0.977,-7.141,3.601
0.028,0.057,1.023,0.305,-4.272,6.226
0.019,0.091,0.992,5.066,1.404,5.615
0.024,0.094,0.977,11.475,2.808,3.113
0.035,0.100,0.985,14.587,4.883,1.953
0.028,0.086,0.933,17.456,7.019,-1.160
0.020,0.045,0.926,14.587,3.113,-0.671
0.023,0.046,0.941,13.611,3.540,1.282
0.021,0.036,0.884,13.672,4.150,0.610
0.026,0.019,0.898,11.780,1.465,-0.427
0.024,0.012,0.941,5.981,-4.639,0.244
0.027,0.018,1.044,4.150,-7.080,0.488
0.032,0.013,1.100,7.019,-6.592,-0.427
0.020,-0.006,1.029,11.292,-0.916,-0.610
0.016,-0.012,0.947,9.155,-0.610,1.648
0.034,0.015,0.951,4.517,-4.272,3.418
0.045,0.036,0.947,1.526,-4.944,4.150
0.038,0.049,0.948,-5.859,-12.695,1.526
0.030,0.059,1.088,-6.470,-17.212,-0.244
0.031,0.058,1.099,2.808,-7.202,-3.723
0.011,-0.009,1.014,5.066,-2.502,-4.639
0.011,-0.033,1.010,2.075,1.892,0.000
0.008,0.009,0.962,1.404,4.761,2.930
0.007,0.036,0.964,-1.465,0.549,4.456
0.015,0.078,0.997,-2.197,-1.099,3.418
0.011,0.065,0.974,-3.967,-2.808,0.793
0.002,0.002,1.044,-8.057,-10.498,-2.563

-0.418,-0.085,2.284,19.775,254.700,28.809
-0.435,-0.026,2.306,58.350,370.056,41.504
-0.466,0.015,1.932,66.284,430.542,42.175
-0.431,0.065,1.745,19.775,511.169,37.231
-0.303,0.212,1.707,-17.944,529.175,25.940
-0.306,0.159,1.586,-51.758,564.453,-11.047
-0.340,-0.336,0.869,-37.476,568.848,-26.550
-0.286,-0.662,0.720,-7.690,544.678,-30.701
-0.212,-0.806,0.743,60.059,473.389,13.184
-0.085,-0.344,0.464,80.383,463.989,47.791
-0.052,-0.092,0.240,69.092,478.821,83.923
-0.047,0.143,-0.022,54.443,492.126,92.285
-0.103,0.194,-0.197,43.701,515.503,100.525
-0.332,0.180,-0.548,50.354,516.174,105.957
-0.328,0.220,-0.561,83.252,468.872,129.333
-0.126,0.725,-0.798,101.440,436.157,133.606
-0.062,0.997,-1.055,142.517,364.929,87.708
-0.077,0.758,-1.128,160.278,326.111,49.805
-0.062,0.491,-0.968,170.044,290.894,28.137
-0.049,0.310,-0.723,165.039,232.971,36.682
-0.028,0.383,-0.531,160.583,219.055,48.889
-0.004,0.539,-0.607,170.532,222.961,56.580
0.011,0.826,-1.056,176.453,232.544,47.546
-0.103,0.800,-1.296,166.626,218.750,10.559
-0.289,0.447,-1.209,141.357,188.477,3.418
-0.241,0.449,-0.966,86.731,149.475,19.958
-0.088,0.746,-0.993,75.256,154.358,18.738
-0.020,0.839,-1.221,66.650,158.569,4.639
-0.043,0.847,-1.685,30.579,129.089,-28.992
-0.120,0.731,-1.779,14.038,97.839,-36.804
-0.241,0.547,-1.660,-8.423,24.780,-25.452
-0.330,0.356,-0.842,-2.930,3.113,-5.859
-0.194,0.428,-0.575,41.382,19.409,28.503
-0.002,0.839,-0.769,56.641,37.720,29.175
-0.026,0.987,-0.965,55.359,38.147,-1.587
-0.084,0.973,-1.043,44.067,23.621,-14.771
-0.062,0.896,-1.012,20.020,-2.441,-9.949
0.098,0.743,-0.772,6.958,-10.620,1.282
0.198,0.713,-0.666,-0.793,-11.719,10.193
0.342,0.755,-0.696,-6.775,-1.892,6.958
0.369,0.752,-0.761,-8.972,-0.305,-5.127
0.359,0.695,-0.797,-11.902,-6.775,-27.954
0.249,0.511,-0.829,-15.076,-11.414,-29.358
0.197,0.466,-0.786,-21.179,-20.020,-17.822
0.145,0.486,-0.771,-15.198,-17.822,-14.160
0.138,0.518,-0.863,-3.113,-16.235,-13.184
0.105,0.591,-0.939,-2.380,-22.278,-12.817
0.090,0.610,-0.903,2.808,-36.682,-11.230
0.030,0.662,-0.856,7.874,-42.969,-10.376
-0.009,0.696,-0.893,11.658,-58.594,-10.742
-0.017,0.795,-1.007,5.127,-68.726,-10.559
0.010,0.870,-1.064,-5.066,-79.285,-10.681
0.030,0.904,-1.048,-16.479,-102.783,-21.118
0.023,0.851,-0.946,-18.982,-115.479,-29.785
0.016,0.796,-0.842,-22.583,-128.723,-43.213
-0.000,0.696,-0.779,-22.400,-130.859,-48.096
0.005,0.672,-0.827,-24.475,-140.198,-53.955
0.052,0.718,-1.034,-30.334,-150.146,-56.702
0.070,0.736,-1.106,-61.096,-186.829,-64.209
0.086,0.671,-1.082,-77.515,-207.092,-65.063
0.094,0.629,-1.055,-80.078,-232.300,-54.932
0.135,0.568,-1.061,-77.393,-244.690,-45.227
0.157,0.576,-1.066,-74.524,-294.312,-26.550
0.163,0.654,-0.949,-73.364,-332.092,-27.466
0.120,0.636,-0.787,-69.336,-371.887,-39.246
0.051,0.381,-0.396,-49.561,-421.814,-78.491
0.133,0.275,-0.208,-38.574,-420.532,-89.539
0.258,0.269,-0.050,-20.569,-375.305,-90.271
0.391,0.354,-0.041,-20.264,-351.379,-92.896
0.382,0.359,-0.133,-23.560,-347.961,-110.901
0.243,0.272,-0.148,-27.344,-368.164,-120.483
0.150,0.245,-0.015,-41.138,-419.983,-130.310
0.013,0.259,0.366,-43.701,-441.711,-134.766
-0.042,0.222,0.574,-36.743,-488.831,-151.978
-0.162,-0.018,1.155,-36.560,-500.488,-162.964
-0.188,-0.175,1.413,-54.321,-425.171,-164.795
-0.131,-0.299,1.479,-68.420,-356.811,-147.461
-0.069,-0.210,1.427,-87.341,-266.907,-98.206
0.001,0.061,1.284,-83.069,-253.784,-84.167
-0.014,0.071,1.249,-72.998,-254.211,-80.627
-0.058,-0.000,1.338,-48.889,-259.399,-79.102
-0.055,-0.004,1.447,-31.311,-257.385,-76.355
-0.033,-0.013,1.517,4.822,-231.445,-69.214
0.040,-0.018,1.526,4.150,-209.045,-63.538
0.068,-0.032,1.528,-24.414,-164.185,-51.758
0.044,-0.020,1.402,-24.963,-145.081,-45.044
0.055,0.005,1.365,-5.188,-131.897,-43.274
0.043,-0.078,1.419,7.263,-128.296,-49.255
0.014,-0.139,1.374,14.832,-106.140,-50.781
0.046,-0.088,1.330,3.540,-95.642,-41.992
0.087,-0.009,1.343,-15.381,-67.993,-27.405
0.116,0.092,1.083,-12.390,-53.894,-26.123
0.097,0.069,0.977,-7.690,-49.500,-26.733
0.075,0.052,1.012,-7.629,-57.861,-21.912
0.076,0.092,1.000,-6.104,-58.716,-18.677
0.069,0.120,0.962,6.958,-65.796,-21.423
0.065,0.105,1.035,7.812,-71.472,-24.353
0.044,0.080,1.055,6.714,-62.744,-28.015
-0.006,0.027,1.119,3.967,-55.420,-28.076
-0.024,0.024,1.167,3.967,-45.349,-27.039
-0.010,0.090,1.161,10.254,-38.208,-28.381
0.001,0.100,1.099,18.433,-24.475,-39.307
-0.032,-0.058,1.115,13.367,-23.682,-42.358
-0.054,-0.128,1.111,12.573,-22.888,-37.903
-0.061,-0.166,1.039,26.306,-17.944,-13.611
-0.030,-0.095,0.856,27.161,-17.090,-0.793
-0.001,-0.042,0.862,0.305,-21.484,10.620
0.012,0.043,0.977,-12.756,-22.827,10.193
-0.002,0.046,1.007,-10.193,-20.569,0.793
-0.031,-0.049,1.110,-4.150,-18.494,-1.343
-0.058,-0.059,1.097,12.146,-5.127,5.615
-0.063,0.006,0.959,14.587,-3.601,9.216
-0.046,0.016,0.992,5.615,-14.099,8.545
-0.047,-0.009,1.028,2.136,-13.550,7.080
-0.049,-0.007,1.013,-0.488,-10.742,6.836
-0.043,0.006,1.040,-6.409,-10.620,7.507
-0.045,0.023,1.078,-2.441,-9.583,6.836
-0.061,-0.001,1.055,8.606,-6.653,5.737
-0.061,-0.032,1.009,9.216,-5.188,7.385

-0.437,-0.228,2.147,-0.244,163.940,41.077
-0.516,-0.155,2.123,32.715,266.907,60.364
-0.579,0.022,1.904,46.021,314.026,63.599
-0.537,0.099,1.767,75.317,390.320,64.270
-0.439,0.234,1.429,87.585,414.246,53.406
-0.419,0.264,1.366,92.102,429.199,27.100
-0.381,0.215,1.492,81.116,479.919,-48.218
-0.345,0.122,1.440,83.740,527.771,-74.585
-0.259,0.009,1.190,139.709,614.746,-76.477
-0.006,-0.156,0.645,168.091,619.629,-61.646
0.035,-0.157,0.513,161.865,577.515,-33.386
0.269,-0.224,0.223,137.268,553.955,-14.221
0.382,-0.240,0.141,131.714,480.774,49.011
0.403,-0.089,0.186,127.625,444.580,74.280
0.374,-0.006,0.092,104.309,427.673,93.445
0.264,0.059,-0.287,106.323,423.035,94.727
0.173,0.069,-0.429,116.882,404.846,92.529
0.140,0.079,-0.548,113.525,342.651,85.815
0.210,0.164,-0.672,102.173,304.077,83.923
0.233,0.179,-0.700,92.224,235.107,79.163
0.274,0.196,-0.761,91.003,210.937,80.322
0.332,0.269,-0.756,97.107,189.026,80.139
0.266,0.318,-0.878,107.544,189.209,70.251
0.164,0.243,-0.931,112.671,187.561,58.594
0.125,0.183,-0.855,101.379,171.814,47.607
0.128,0.126,-0.713,106.323,166.260,46.082
0.100,0.182,-0.835,130.432,156.494,46.448
0.008,0.380,-1.183,124.695,143.555,44.617
-0.020,0.411,-1.250,74.707,103.699,35.095
0.017,0.400,-1.137,49.072,84.778,29.053
0.069,0.319,-0.915,31.738,67.261,21.912
0.116,0.242,-0.640,37.781,64.453,14.648
0.083,0.346,-0.926,61.646,87.036,15.015
0.046,0.453,-1.293,70.374,93.018,14.282
0.029,0.594,-1.400,49.805,67.444,14.038
0.024,0.617,-1.187,19.714,33.264,5.066
0.032,0.585,-1.022,17.700,35.828,1.892
0.076,0.631,-1.097,17.700,42.297,3.784
0.170,0.676,-1.257,16.968,34.668,0.977
0.208,0.622,-1.269,14.771,20.325,-3.357
0.252,0.554,-1.241,-0.122,-10.864,-3.906
0.354,0.514,-1.106,-9.705,-21.606,-0.671
0.399,0.492,-0.992,-19.531,-28.198,-4.150
0.433,0.351,-0.773,-16.113,-20.691,-10.437
0.412,0.281,-0.800,-3.052,1.831,-19.592
0.372,0.224,-0.943,-1.648,4.700,-18.188
0.369,0.245,-0.982,-4.211,-0.244,-7.629
0.365,0.283,-0.923,-4.150,-3.723,-3.601
0.354,0.289,-0.841,8.911,-2.197,-4.395
0.300,0.312,-0.855,15.503,2.625,-7.690
0.259,0.337,-0.964,17.944,3.906,-10.620
0.217,0.362,-1.055,8.240,-13.367,-10.925
0.161,0.428,-1.170,0.854,-24.292,-7.507
0.135,0.485,-1.261,-8.301,-47.119,0.488
0.083,0.539,-1.334,-10.132,-67.688,0.793
0.062,0.501,-1.241,-19.287,-111.145,2.625
0.036,0.480,-1.075,-23.132,-121.521,6.653
0.046,0.502,-1.059,-25.208,-128.784,10.193
0.099,0.587,-1.128,-24.353,-130.859,8.179
0.113,0.619,-1.231,-24.658,-146.729,-3.967
0.095,0.597,-1.376,-28.564,-167.603,-11.414
0.093,0.539,-1.353,-36.865,-195.374,-17.151
0.093,0.482,-1.275,-61.340,-249.695,-19.104
0.070,0.376,-1.111,-66.467,-269.531,-16.968
0.068,0.334,-1.012,-60.303,-301.086,-9.705
0.199,0.358,-0.746,-55.603,-311.707,-6.836
0.353,0.407,-0.637,-63.538,-330.139,-10.315
0.563,0.524,-0.396,-65.552,-343.872,-23.071
0.536,0.456,-0.256,-45.105,-359.558,-70.679
0.305,0.110,-0.205,-30.212,-351.990,-86.548
0.213,-0.012,-0.271,-24.414,-332.153,-78.918
0.251,0.023,-0.242,-33.142,-336.060,-60.547
0.326,0.188,-0.150,-54.871,-371.216,-34.546
0.419,0.445,0.133,-54.993,-396.728,-43.396
0.311,0.348,0.339,-40.466,-417.969,-66.101
0.153,0.145,0.506,-31.555,-408.203,-100.037
0.014,-0.015,0.712,-51.819,-387.695,-94.788
0.034,0.058,0.886,-69.275,-366.150,-83.435
0.067,0.052,1.208,-52.856,-357.605,-87.585
0.061,0.037,1.259,-0.549,-325.684,-100.525
-0.004,-0.064,1.184,9.399,-309.082,-107.971
-0.038,-0.125,1.173,-4.150,-287.903,-99.792
-0.035,0.014,1.257,-22.461,-280.823,-88.745
-0.018,0.058,1.322,-43.518,-277.039,-94.666
-0.112,-0.156,1.534,-34.790,-272.461,-106.079
-0.157,-0.319,1.605,-19.165,-226.074,-103.271
-0.089,-0.338,1.568,-26.001,-192.261,-83.862
-0.021,-0.180,1.453,-29.785,-161.560,-63.843
-0.005,-0.098,1.315,-8.911,-133.362,-59.692
-0.014,-0.195,1.330,1.770,-132.019,-67.078
-0.007,-0.283,1.367,6.042,-124.146,-56.641
0.029,-0.246,1.463,0.488,-112.183,-41.748
0.055,-0.190,1.482,-14.587,-84.656,-27.039
0.062,-0.130,1.350,-12.024,-71.838,-26.062
0.073,-0.128,1.284,-4.150,-56.763,-25.574
0.063,-0.149,1.205,-2.075,-49.622,-23.376
0.066,-0.143,1.172,6.470,-37.109,-14.099
0.087,-0.094,1.116,12.207,-34.302,-8.911
0.078,-0.077,1.080,9.705,-31.738,-3.052
0.113,-0.044,1.060,0.854,-30.823,-1.099
0.122,-0.021,1.091,-4.761,-29.419,0.488
0.116,0.003,1.092,-2.136,-20.325,-0.061
0.089,0.028,1.071,2.625,-17.639,-3.174
0.080,-0.000,1.086,15.564,-14.404,-10.925
0.059,-0.078,1.044,20.508,-10.071,-12.390
0.049,-0.101,0.976,22.156,-7.507,-10.437
0.040,-0.118,0.901,17.273,-13.245,-8.240
0.047,-0.122,0.959,3.174,-25.635,-4.089
0.058,-0.109,1.146,-0.244,-23.376,-2.075
0.057,-0.090,1.173,6.958,-5.127,-1.831
0.049,-0.103,1.075,11.963,5.188,-3.357
0.030,-0.126,0.963,15.137,12.817,-4.639
0.015,-0.142,0.869,12.634,11.780,-3.418
0.037,-0.138,0.930,7.935,4.211,-1.343
0.045,-0.131,0.996,3.723,-3.967,0.183
0.035,-0.157,1.034,1.648,-3.906,0.366
0.038,-0.149,1.028,0.610,-0.549,3.479
0.045,-0.103,0.994,3.235,1.099,3.784
0.048,-0.096,0.988,4.395,1.587,1.404

-0.284,-0.443,2.368,34.424,206.848,55.664
-0.363,-0.430,2.289,71.594,324.341,88.440
-0.532,-0.256,1.855,85.876,374.084,102.966
-0.552,-0.180,1.687,106.262,437.439,125.793
-0.463,-0.222,1.801,100.464,461.853,135.742
-0.474,-0.171,1.890,92.896,549.072,152.832
-0.426,0.340,1.410,106.018,600.830,146.362
-0.295,0.613,0.935,129.578,636.475,124.023
-0.114,0.742,0.517,164.673,627.014,43.091
0.054,0.190,0.275,154.602,598.389,4.150
0.019,-0.164,0.206,123.840,591.797,15.320
-0.052,-0.252,-0.418,124.451,595.032,48.401
-0.002,-0.154,-0.755,129.578,506.531,91.248
0.292,-0.028,-0.639,111.877,425.720,98.267
0.415,0.100,-0.419,66.040,328.796,103.577
0.338,0.294,-0.321,71.716,331.360,96.069
0.228,0.285,-0.574,96.252,348.938,85.815
0.126,0.227,-0.866,126.648,333.435,79.346
0.115,0.191,-0.999,118.652,288.696,84.961
0.164,0.211,-0.819,91.248,212.402,90.759
0.131,0.125,-0.617,92.285,205.688,89.111
0.103,0.109,-0.707,93.140,212.830,98.755
0.030,0.145,-0.785,86.365,205.749,103.516
-0.007,0.113,-0.755,87.097,193.848,103.333
-0.059,0.125,-0.718,108.704,176.208,107.788
-0.210,0.164,-0.616,117.310,179.260,109.436
-0.277,0.188,-0.749,123.474,198.425,118.103
-0.322,0.413,-0.930,116.455,187.561,122.375
-0.312,0.510,-0.803,105.164,156.860,110.840
-0.388,0.682,-0.860,103.516,161.926,100.159
-0.439,0.705,-1.020,88.074,158.630,78.979
-0.513,0.716,-1.034,78.064,137.451,72.327
-0.513,0.742,-0.939,71.899,115.479,67.871
-0.516,0.811,-0.895,70.068,94.116,59.021
-0.545,0.927,-0.952,65.918,85.815,48.950
-0.547,0.921,-0.923,46.692,64.209,26.306
-0.536,0.915,-0.980,39.307,57.617,19.775
-0.518,0.919,-1.095,21.912,31.921,9.888
-0.448,0.840,-1.100,9.644,10.010,5.188
-0.395,0.741,-1.017,-9.338,-17.883,1.099
-0.263,0.603,-0.872,-15.015,-22.339,2.869
-0.199,0.568,-0.839,-13.062,-21.606,4.822
-0.105,0.558,-0.816,-9.338,-19.409,4.089
-0.086,0.556,-0.810,-6.104,-17.761,1.160
-0.109,0.552,-0.855,1.343,-14.038,-6.836
-0.131,0.566,-0.962,2.563,-10.010,-8.728
-0.150,0.569,-1.041,-9.460,-21.362,-6.592
-0.158,0.582,-0.958,-16.235,-36.011,-3.723
-0.155,0.603,-0.855,-18.005,-52.979,-4.089
-0.201,0.655,-0.819,-13.245,-53.406,-7.690
-0.257,0.700,-0.836,0.977,-55.969,-19.470
-0.366,0.720,-0.902,10.803,-54.871,-27.527
-0.405,0.734,-1.020,12.207,-59.082,-34.790
-0.436,0.850,-1.205,2.747,-72.754,-36.926
-0.443,0.842,-1.219,-15.930,-117.615,-49.683
-0.423,0.711,-1.114,-26.672,-144.165,-54.138
-0.398,0.683,-1.037,-47.729,-183.960,-57.068
-0.371,0.639,-1.022,-54.687,-197.388,-59.998
-0.374,0.613,-1.030,-60.852,-212.830,-63.171
-0.349,0.560,-1.025,-63.721,-245.972,-67.261
-0.311,0.540,-0.998,-61.707,-259.521,-67.383
-0.266,0.542,-0.981,-65.918,-280.396,-62.744
-0.189,0.589,-1.024,-71.777,-297.058,-62.195
-0.170,0.597,-0.971,-76.721,-354.004,-75.745
-0.102,0.486,-0.705,-70.801,-379.089,-86.487
-0.024,0.448,-0.513,-58.350,-394.836,-98.816
0.115,0.458,-0.360,-51.025,-383.911,-105.103
0.140,0.442,-0.443,-49.438,-372.681,-122.009
0.135,0.378,-0.516,-65.857,-384.155,-125.183
0.128,0.371,-0.486,-94.482,-419.189,-122.620
0.012,0.356,-0.461,-95.703,-442.871,-122.131
-0.104,0.285,-0.335,-84.229,-521.423,-126.770
-0.134,0.171,0.491,-75.195,-555.115,-129.456
-0.089,0.133,0.833,-29.602,-526.001,-150.574
-0.080,-0.191,0.852,-22.156,-479.736,-162.170
-0.115,-0.259,0.789,-36.011,-441.345,-159.790
-0.144,-0.128,1.179,-75.745,-422.974,-131.775
-0.141,-0.136,1.439,-71.777,-424.438,-123.230
-0.201,-0.393,1.729,-19.226,-402.710,-118.958
-0.210,-0.563,1.744,-2.991,-371.887,-112.488
-0.176,-0.608,1.630,-28.076,-285.156,-66.223
0.057,-0.196,1.346,-59.570,-249.817,-38.330
0.128,0.106,1.232,-97.473,-208.740,-24.353
0.019,0.209,1.205,-88.623,-215.515,-41.504
-0.056,-0.015,1.482,-29.114,-243.286,-68.909
-0.075,-0.362,1.823,-12.695,-217.468,-61.523
-0.020,-0.255,1.711,-33.142,-132.141,-19.592
0.041,0.130,1.306,-37.598,-109.924,-11.292
0.026,0.138,1.214,-20.752,-114.868,-27.222
0.036,-0.020,1.328,-16.541,-118.774,-31.128
0.046,-0.032,1.294,-23.926,-104.370,-20.630
-0.004,-0.019,1.171,-20.203,-99.731,-16.602
-0.012,-0.057,1.250,-12.024,-99.792,-13.794
-0.018,-0.055,1.375,2.380,-81.787,-2.869
-0.010,0.007,1.291,6.348,-62.439,3.174
0.006,0.081,1.160,6.409,-40.039,5.188
0.048,0.161,1.059,0.671,-41.199,0.366
0.046,0.126,1.157,-18.188,-46.143,-10.864
-0.009,-0.001,1.266,-16.724,-38.391,-11.963
-0.030,-0.033,1.221,3.418,-23.254,-6.348
-0.016,-0.030,1.141,8.972,-20.996,-2.502
0.003,0.003,1.149,7.629,-15.991,1.038
-0.007,0.035,1.049,7.996,-11.292,0.122
-0.020,0.034,1.005,7.751,-9.338,-0.793
-0.018,0.035,1.001,5.981,-14.282,-2.197
-0.006,-0.003,1.033,5.493,-18.372,-3.967
-0.011,-0.025,1.036,2.502,-18.372,-3.967
-0.029,-0.010,1.058,1.892,-16.602,-2.991
-0.035,0.007,1.067,3.845,-12.146,-2.991
-0.047,-0.003,1.052,3.662,-9.583,-3.357
-0.057,-0.035,1.030,3.906,-4.395,-2.563
-0.041,-0.066,1.014,2.625,-3.052,-0.916
-0.043,-0.064,1.008,-5.310,-2.380,2.930
-0.049,-0.027,1.017,-5.188,-3.723,4.150
-0.042,-0.010,1.023,3.235,-3.784,4.395
-0.037,0.001,0.955,4.456,-1.892,3.601
-0.038,0.001,0.956,2.197,-1.953,2.930
-0.043,-0.007,0.985,-4.395,-2.563,2.319
-0.059,-0.016,0.968,-7.263,-1.526,3.601

-0.432,-0.220,2.300,14.404,173.035,19.958
-0.501,-0.245,2.275,46.326,268.127,40.222
-0.583,-0.109,2.056,50.476,313.416,50.964
-0.595,-0.034,2.028,45.105,403.564,61.890
-0.664,-0.046,2.084,43.335,452.637,63.416
-0.745,-0.108,2.172,44.189,559.204,66.772
-1.025,-0.236,2.279,52.002,627.747,75.867
-1.076,-0.009,1.938,74.463,704.651,92.346
-0.904,0.418,1.268,148.560,788.208,100.769
-0.239,0.980,-0.149,161.865,758.484,73.242
-0.048,0.792,-0.516,118.896,610.413,-7.996
-0.097,-0.164,-0.604,83.130,535.583,-25.269
-0.097,-0.453,-0.501,19.470,411.499,32.654
0.214,-0.203,0.057,2.625,359.436,76.172
0.365,0.157,0.281,42.542,335.022,96.375
0.308,0.501,-0.034,87.830,362.732,70.679
0.152,0.396,-0.470,124.756,385.803,42.908
-0.001,0.240,-0.778,140.381,356.262,32.776
-0.079,0.081,-0.724,134.155,325.745,47.424
-0.072,0.117,-0.608,138.245,296.204,72.937
-0.102,0.230,-0.634,143.372,292.603,75.439
-0.110,0.294,-0.750,143.250,279.541,74.158
-0.120,0.387,-1.049,142.090,266.296,72.876
-0.120,0.351,-1.134,129.700,215.942,68.787
-0.152,0.303,-0.938,124.634,186.401,69.641
-0.168,0.357,-0.854,125.061,166.321,71.350
-0.205,0.441,-0.891,134.216,155.029,69.824
-0.298,0.526,-1.135,132.080,149.109,65.674
-0.326,0.568,-1.166,105.347,120.972,63.110
-0.327,0.690,-1.208,90.027,105.591,64.392
-0.311,0.763,-1.206,65.979,76.233,61.401
-0.319,0.837,-1.136,60.181,68.420,53.345
-0.332,0.816,-1.109,49.255,61.829,37.659
-0.307,0.812,-1.208,42.175,56.152,37.231
-0.255,0.855,-1.226,32.288,44.128,39.551
-0.200,0.897,-1.163,12.329,12.390,36.255
-0.133,0.911,-0.943,6.042,2.380,29.968
-0.059,0.903,-0.798,-9.827,-2.441,16.052
0.075,0.869,-0.759,-13.367,3.479,6.287
0.081,0.820,-0.913,-13.855,4.639,-15.991
0.013,0.650,-1.076,-17.151,-5.859,-22.583
-0.013,0.569,-1.072,-21.912,-25.757,-19.897
0.026,0.512,-1.017,-23.926,-34.180,-13.489
0.072,0.494,-0.928,-25.635,-48.401,-5.493
0.148,0.427,-0.724,-22.095,-48.462,-5.249
0.170,0.420,-0.687,-15.930,-42.908,-6.042
0.179,0.459,-0.716,-2.075,-26.489,-10.620
0.130,0.552,-0.895,1.221,-22.400,-15.808
0.089,0.587,-0.988,1.770,-32.227,-22.095
0.004,0.660,-1.093,1.892,-45.410,-23.437
-0.031,0.679,-1.098,1.953,-73.730,-25.391
-0.075,0.685,-1.047,1.160,-85.022,-25.330
-0.075,0.696,-1.031,-0.854,-100.525,-26.550
-0.013,0.723,-0.993,-3.662,-106.018,-29.541
0.034,0.748,-0.983,-14.038,-114.014,-39.795
0.129,0.767,-1.010,-20.569,-120.300,-48.584
0.152,0.746,-1.020,-34.119,-142.029,-68.237
0.111,0.655,-1.005,-35.889,-155.701,-77.759
0.054,0.560,-0.998,-34.058,-169.739,-86.121
-0.025,0.369,-1.048,-27.161,-195.251,-85.632
0.005,0.345,-1.033,-29.968,-209.839,-74.890
0.083,0.380,-0.971,-53.528,-239.563,-48.279
0.300,0.544,-0.786,-66.406,-250.488,-40.588
0.388,0.602,-0.681,-76.904,-261.414,-47.607
0.446,0.566,-0.466,-71.045,-259.155,-60.791
0.391,0.469,-0.456,-37.537,-240.723,-85.937
0.279,0.280,-0.651,-21.973,-235.657,-89.722
0.279,0.230,-0.697,-39.673,-273.804,-79.895
0.386,0.244,-0.487,-64.026,-308.411,-71.350
0.445,0.268,-0.333,-84.534,-347.717,-64.453
0.467,0.216,-0.115,-79.041,-344.971,-65.369
0.441,0.179,-0.063,-73.853,-314.758,-62.744
0.388,0.220,-0.019,-79.529,-300.720,-59.937
0.382,0.286,0.007,-84.961,-297.302,-58.594
0.395,0.373,0.081,-87.708,-345.398,-65.063
0.427,0.448,0.582,-80.322,-387.512,-79.224
0.386,0.306,0.863,-28.442,-405.701,-131.042
0.165,-0.239,0.948,-3.052,-363.342,-145.752
0.067,-0.428,0.821,-15.564,-254.456,-110.535
0.089,-0.251,0.665,-44.983,-225.647,-72.998
0.191,0.073,0.722,-85.510,-245.056,-30.579
0.284,0.342,0.968,-76.477,-273.743,-44.922
0.196,0.116,1.034,-1.343,-292.358,-91.614
-0.026,-0.371,0.891,21.484,-266.846,-90.698
-0.031,-0.327,0.774,10.620,-234.497,-67.566
0.192,0.185,1.118,-98.755,-235.840,-1.282
0.283,0.482,1.504,-142.883,-263.000,11.169
0.285,0.593,1.807,-66.711,-270.630,-51.331
0.147,0.019,1.899,3.113,-238.098,-94.055
0.073,-0.269,1.701,60.364,-149.597,-86.121
0.147,-0.164,1.355,18.616,-130.310,-48.950
0.202,0.078,1.343,-73.242,-134.521,-10.437
0.114,0.148,1.345,-66.650,-131.226,-22.217
0.061,-0.013,1.296,-25.391,-109.985,-39.368
0.042,-0.182,1.379,-20.386,-102.600,-31.921
0.051,-0.144,1.425,-16.968,-91.736,-19.653
0.081,0.016,1.329,4.089,-63.171,-3.296
0.104,0.045,1.251,11.169,-56.824,-5.310
0.139,0.048,1.156,4.578,-48.279,-7.812
0.179,0.136,1.003,-7.874,-44.495,-4.761
0.177,0.152,1.052,-28.381,-44.678,-6.653
0.122,0.067,1.195,-23.682,-39.673,-7.385
0.109,0.064,1.188,0.610,-24.048,-1.160
0.130,0.078,1.226,9.644,-21.790,-0.488
0.133,0.051,1.234,23.621,-9.888,-0.793
0.113,0.052,1.032,28.870,-0.549,0.916
0.120,0.070,0.942,27.039,3.296,2.136
0.129,0.076,0.932,2.380,-4.639,1.648
0.126,0.067,1.041,-3.418,-7.263,1.160
0.125,0.070,1.034,5.859,-3.784,-0.427
0.115,0.076,0.983,9.583,-4.150,-2.441
0.114,0.057,1.019,13.733,-6.775,-6.592
0.098,0.016,1.005,18.433,-2.502,-6.470
0.089,0.000,0.952,20.569,1.343,-5.371
0.084,-0.014,0.938,15.442,-2.808,-3.418
0.085,-0.014,0.948,12.634,-5.676,-2.197
0.096,0.002,0.963,7.263,-7.507,0.977
0.105,0.014,0.973,8.118,-5.981,1.038
0.101,0.005,0.967,9.644,-3.662,1.221

-0.374,-0.167,2.816,0.305,114.868,7.874
-0.572,-0.260,3.334,-41.382,270.508,15.381
-1.170,-0.301,4.000,-54.749,381.897,21.362
-1.545,-0.263,4.000,-22.766,657.898,34.363
-2.362,-0.069,3.728,11.292,799.377,40.283
-2.598,0.178,3.046,56.335,1002.502,44.128
-2.284,0.778,1.233,65.674,1031.311,27.039
-1.957,0.761,0.601,78.613,1017.639,-1.770
-1.748,0.476,0.123,101.196,968.262,-16.052
-1.395,0.098,-0.966,106.506,912.414,5.737
-1.090,0.130,-1.337,88.562,679.016,42.480
-0.563,0.245,-1.371,67.749,561.462,62.622
-0.312,0.454,-1.243,40.955,406.311,100.159
-0.005,0.752,-1.123,51.636,359.009,91.248
0.051,0.714,-1.021,73.853,283.142,32.410
-0.107,0.393,-0.742,82.581,265.076,1.953
-0.277,0.126,-0.923,93.567,264.404,-14.648
-0.496,-0.101,-1.063,92.346,227.539,13.855
-0.474,-0.030,-0.952,86.609,194.702,39.612
-0.412,0.143,-0.948,88.379,173.096,81.055
-0.323,0.456,-1.059,87.402,170.471,86.243
-0.305,0.487,-1.068,84.473,159.424,68.420
-0.369,0.522,-1.050,85.693,148.499,52.979
-0.430,0.479,-0.998,90.515,130.981,19.226
-0.561,0.452,-1.254,89.966,127.930,12.390
-0.595,0.505,-1.369,71.289,88.501,11.536
-0.572,0.557,-1.253,61.646,62.927,8.728
-0.514,0.539,-1.202,54.321,46.326,7.751
-0.430,0.571,-1.194,38.147,28.015,20.142
-0.220,0.642,-1.088,29.358,16.968,21.057
-0.147,0.598,-0.993,14.893,2.380,8.972
-0.072,0.534,-1.009,10.010,3.174,4.395
-0.044,0.521,-1.101,-6.531,-1.831,3.113
0.042,0.490,-1.079,-18.677,-11.047,5.676
0.093,0.468,-0.960,-27.588,-22.705,7.324
0.180,0.446,-0.708,-21.973,-16.602,5.432
0.190,0.469,-0.737,-12.024,-2.625,1.709
0.150,0.471,-0.901,4.517,15.930,-11.230
0.130,0.436,-0.964,7.812,16.235,-15.503
0.129,0.420,-0.983,8.118,5.188,-10.193
0.159,0.437,-0.830,9.460,-2.319,-7.324
0.159,0.440,-0.753,18.433,-0.427,-8.789
0.143,0.477,-0.831,21.973,6.409,-9.766
0.138,0.513,-0.908,17.212,11.963,-11.719
0.124,0.574,-1.034,9.216,9.399,-13.123
0.111,0.560,-1.019,-6.775,-5.737,-16.785
0.078,0.466,-0.879,-8.606,-10.925,-16.907
0.066,0.437,-0.891,-5.981,-11.963,-15.381
0.060,0.435,-0.945,-2.625,-18.250,-8.484
0.085,0.480,-0.941,-4.944,-24.353,-5.188
0.114,0.508,-0.910,-6.958,-26.978,-3.174
0.121,0.562,-0.952,-5.981,-26.917,-5.920
0.096,0.567,-0.982,-5.554,-33.203,-13.977
0.022,0.541,-1.005,-5.188,-38.452,-16.174
-0.011,0.530,-1.009,-0.916,-51.392,-16.235
-0.035,0.564,-1.054,1.587,-58.350,-16.174
-0.040,0.575,-1.057,4.883,-70.068,-18.921
-0.041,0.571,-1.000,4.761,-72.815,-20.691
-0.028,0.582,-1.002,1.221,-75.378,-24.963
0.002,0.589,-1.050,-2.930,-79.529,-28.259
0.005,0.567,-1.056,-7.996,-85.937,-31.738
-0.019,0.478,-1.092,-11.169,-101.074,-37.048
-0.026,0.419,-1.064,-11.902,-112.122,-37.109
-0.019,0.392,-0.999,-11.780,-131.287,-30.090
0.015,0.410,-0.983,-6.958,-133.789,-27.222
0.042,0.439,-1.027,-3.174,-142.151,-24.231
0.106,0.537,-1.066,-5.371,-151.428,-24.231
0.138,0.580,-1.054,-11.719,-178.589,-32.654
0.134,0.568,-0.989,-13.977,-194.031,-41.260
0.109,0.509,-0.947,-13.184,-220.459,-57.861
0.047,0.353,-0.824,-11.841,-230.103,-61.829
0.060,0.295,-0.772,-25.940,-245.728,-54.382
0.198,0.366,-0.690,-41.809,-255.615,-43.579
0.233,0.468,-0.716,-51.697,-283.875,-39.978
0.210,0.476,-0.708,-45.959,-309.387,-52.673
0.162,0.406,-0.597,-38.696,-364.380,-75.500
0.028,0.219,-0.395,-38.269,-380.676,-77.698
0.009,0.210,-0.323,-45.715,-395.935,-71.716
0.015,0.271,-0.187,-77.942,-452.576,-58.472
0.056,0.344,0.307,-84.045,-486.877,-60.791
0.059,0.338,0.569,-65.063,-519.470,-77.148
0.038,0.201,1.065,-59.937,-499.756,-87.646
0.034,0.135,1.121,-76.050,-395.508,-92.407
-0.005,0.219,0.842,-86.426,-353.271,-85.388
-0.020,0.365,0.800,-88.135,-371.033,-74.341
-0.045,0.374,1.348,-75.684,-413.696,-82.764
-0.068,0.175,1.742,-32.837,-420.410,-102.112
-0.035,-0.084,1.771,-20.691,-369.385,-97.839
0.015,-0.026,1.562,-29.053,-278.137,-72.144
0.136,0.185,1.447,-38.513,-260.742,-64.941
0.148,0.218,1.543,-42.175,-251.160,-65.918
0.082,0.126,1.629,-28.687,-221.680,-78.125
0.011,-0.152,1.581,-18.860,-204.590,-71.472
0.050,-0.109,1.503,-18.005,-194.580,-31.982
0.164,0.163,1.552,-14.282,-197.021,-20.325
0.168,0.191,1.604,11.719,-174.805,-26.062
0.081,0.013,1.444,20.142,-150.757,-31.006
0.061,-0.033,1.374,11.597,-121.338,-19.287
0.109,0.079,1.414,-1.099,-104.919,-11.719
0.125,0.137,1.331,-0.549,-61.829,-13.977
0.132,0.164,1.070,9.033,-51.697,-17.883
0.114,0.145,0.987,15.381,-50.659,-20.142
0.084,0.108,0.984,16.174,-58.899,-17.212
0.085,0.117,1.010,14.160,-61.279,-13.062
0.083,0.117,1.044,9.766,-58.472,-9.583
0.051,0.017,1.098,10.254,-54.749,-7.874
0.043,0.000,1.109,11.536,-42.114,3.113
0.027,0.023,1.068,10.193,-33.447,5.920
0.022,0.030,1.042,3.662,-22.156,6.653
0.035,0.105,1.101,-0.183,-19.165,6.165
0.022,0.101,1.121,-0.793,-14.954,3.540
0.002,0.042,1.055,6.775,-4.883,1.282
-0.005,0.016,0.987,10.742,-2.075,3.357
-0.010,-0.008,0.928,7.629,-6.775,11.963
0.009,0.051,0.966,3.113,-11.475,15.808
0.008,0.081,1.006,-2.930,-11.841,12.207
0.004,0.099,1.045,-2.930,-9.460,8.850
0.002,0.096,1.049,1.099,-2.319,3.906
-0.015,0.062,0.957,3.601,1.160,2.441

-1.003,0.349,-1.518,131.409,171.082,-31.738
-1.023,0.361,-1.651,89.905,106.201,-12.390
-0.843,0.620,-1.290,69.458,57.434,-4.272
-0.767,0.737,-1.181,63.110,25.269,-17.761
-0.621,0.708,-1.357,60.608,23.865,-28.809
-0.529,0.559,-1.418,40.222,-1.831,-25.635
-0.266,0.344,-1.389,25.940,-20.142,-9.216
-0.125,0.334,-1.342,11.780,-39.185,10.193
0.256,0.382,-0.818,-24.048,-74.219,41.565
0.437,0.462,-0.525,-35.461,-70.251,46.204
0.509,0.509,-0.505,-15.137,-8.362,12.939
0.354,0.436,-0.986,-2.930,9.949,-9.521
0.261,0.364,-1.091,-7.019,-7.446,-21.484
0.210,0.300,-0.869,-13.428,-14.709,-13.306
0.194,0.344,-0.832,-10.071,0.183,-2.075
0.197,0.410,-0.771,-5.371,3.845,-1.831
0.231,0.455,-0.646,12.024,19.714,-5.920
0.230,0.489,-0.812,24.963,35.767,-14.160
0.187,0.470,-1.002,31.555,42.175,-21.484
0.139,0.454,-1.124,22.766,16.907,-22.278
0.102,0.406,-1.064,14.221,-0.610,-17.944
0.130,0.383,-0.929,2.747,-14.954,-6.104
0.201,0.373,-0.703,3.723,-10.559,-2.014
0.202,0.383,-0.734,15.320,4.456,-2.686
0.149,0.433,-0.943,18.860,5.676,-4.211
0.126,0.452,-1.017,13.245,-5.066,-3.235
0.127,0.490,-0.969,5.310,-11.902,-0.671
0.133,0.496,-0.897,-1.221,-14.648,-0.488
0.116,0.440,-0.833,0.000,-12.939,-2.441
0.110,0.415,-0.821,0.061,-10.864,-2.686
0.111,0.427,-0.860,0.427,-4.456,0.366
0.106,0.478,-0.997,0.427,-5.493,-0.305
0.102,0.481,-1.010,-2.441,-16.541,-3.845
0.076,0.469,-0.995,-3.540,-21.912,-5.676
0.053,0.473,-1.034,-5.371,-35.522,-7.690
0.016,0.520,-1.074,-7.996,-46.631,-7.996
0.004,0.544,-1.027,-12.207,-66.589,-12.085
0.003,0.573,-0.889,-10.559,-69.702,-16.296
0.009,0.577,-0.827,2.319,-60.730,-29.419
-0.026,0.532,-0.903,9.705,-52.673,-37.781
-0.045,0.509,-1.024,10.315,-52.856,-47.302
-0.044,0.509,-1.221,3.845,-64.209,-46.753
-0.027,0.518,-1.269,-4.517,-80.444,-44.617
-0.001,0.528,-1.286,-22.766,-120.605,-40.405
0.042,0.533,-1.194,-27.344,-142.395,-40.039
0.066,0.497,-1.075,-27.344,-180.420,-42.664
0.120,0.438,-0.859,-22.034,-188.660,-44.128
0.135,0.420,-0.871,-4.944,-189.331,-53.223
0.144,0.340,-1.010,-4.517,-196.228,-56.152
0.151,0.325,-1.050,-23.071,-218.689,-41.016
0.250,0.419,-1.066,-32.288,-228.943,-29.602
0.312,0.480,-1.042,-37.476,-259.888,-23.926
0.365,0.484,-0.894,-33.997,-279.297,-29.236
0.345,0.439,-0.841,-14.648,-311.218,-42.358
0.262,0.302,-0.711,-1.160,-323.303,-48.462
0.233,0.230,-0.579,5.859,-330.200,-52.490
0.303,0.198,-0.410,-9.277,-319.458,-45.288
0.411,0.295,-0.360,-27.588,-313.354,-35.889
0.519,0.456,-0.281,-70.129,-331.970,-31.738
0.535,0.585,-0.078,-62.439,-345.032,-48.584
0.449,0.444,-0.031,-4.944,-347.046,-99.854
0.236,0.030,-0.120,12.207,-339.111,-113.525
0.143,-0.092,-0.154,-15.442,-335.510,-99.915
0.114,0.097,0.062,-61.768,-355.591,-78.735
0.172,0.368,0.353,-104.492,-426.758,-58.044
0.135,0.438,1.008,-78.308,-437.561,-79.224
0.050,0.170,1.101,-23.804,-368.530,-126.587
-0.095,-0.308,0.933,-24.780,-327.148,-120.605
-0.140,-0.259,0.950,-41.626,-307.251,-92.957
0.062,0.221,1.121,-62.012,-305.298,-51.392
0.092,0.360,1.236,-58.655,-314.026,-56.213
0.036,0.256,1.400,-15.198,-313.477,-98.999
-0.061,-0.185,1.510,8.301,-286.743,-104.553
-0.058,-0.230,1.511,-2.380,-231.689,-71.472
0.013,-0.001,1.658,-28.687,-215.759,-52.551
0.047,0.116,1.755,-36.804,-180.847,-50.964
0.073,-0.055,1.666,-17.578,-154.480,-63.538
0.055,-0.195,1.529,7.935,-114.502,-64.453
0.072,-0.244,1.428,1.526,-105.896,-50.781
0.105,-0.156,1.436,-25.208,-85.876,-22.461
0.140,-0.011,1.409,-34.790,-72.754,-18.188
0.120,-0.015,1.396,-35.278,-62.805,-19.165
0.106,-0.070,1.375,-12.451,-51.758,-19.653
0.138,-0.043,1.361,1.221,-44.922,-13.855
0.179,0.024,1.291,10.498,-19.409,0.732
0.222,0.117,1.081,3.906,-8.972,2.258
0.212,0.104,1.004,-15.137,-5.676,-2.747
0.179,0.065,0.970,-20.142,-11.230,-3.174
0.188,0.086,0.989,-14.771,-18.799,-0.122
0.202,0.129,0.986,-10.193,-19.531,-1.038
0.202,0.131,0.989,-7.812,-18.677,-6.104
0.170,0.082,1.012,-10.071,-16.174,-8.484
0.152,0.069,0.999,-12.634,-12.512,-8.545
0.152,0.095,0.944,-15.259,-10.925,-5.798
0.159,0.105,0.935,-16.907,-15.259,-5.798
0.153,0.094,0.952,-13.550,-23.560,-10.071
0.136,0.011,1.023,-11.230,-24.597,-11.108
0.131,0.001,1.052,-4.517,-16.602,-5.066
0.119,0.068,1.009,-2.258,-9.155,-2.319
0.121,0.091,0.984,-5.981,-1.648,-1.465
0.123,0.085,0.940,-10.376,-0.977,-1.648
0.128,0.071,0.943,-14.221,-4.639,-0.549
0.130,0.046,0.978,-12.817,-6.226,-0.061
0.129,0.044,0.968,-9.216,-5.920,0.305
0.123,0.054,0.975,-0.793,-7.080,0.854
0.118,0.052,1.021,0.793,-9.460,1.038
0.114,0.048,1.035,2.258,-5.615,3.479
0.118,0.081,0.977,1.282,-2.930,5.493
0.119,0.099,0.966,-0.244,-2.991,5.066
0.114,0.078,0.986,-0.305,-2.686,3.662
0.115,0.071,0.980,2.502,-0.366,2.808
0.109,0.060,0.975,1.709,-1.282,2.808
0.107,0.063,0.980,-0.549,-2.380,3.723
0.108,0.077,0.979,-2.563,-2.686,6.409
0.113,0.086,0.974,-4.639,-2.808,6.531
0.110,0.082,0.980,-4.578,-2.930,6.348
0.114,0.105,0.966,-2.930,-2.747,6.470
0.122,0.128,0.984,-1.343,-3.967,4.578
0.118,0.120,0.977,0.549,-3.906,2.502

-0.200,0.148,2.396,11.780,172.913,3.845
-0.269,0.181,2.289,63.293,283.875,2.014
-0.412,0.290,1.831,82.886,322.815,-3.174
-0.412,0.323,1.606,99.243,363.159,-24.170
-0.320,0.043,1.284,94.177,372.436,-36.560
-0.293,-0.177,1.287,63.232,374.207,-31.982
-0.190,-0.112,1.555,49.988,385.620,-13.855
-0.106,0.129,1.530,47.363,415.222,0.793
-0.037,0.325,1.411,67.871,484.009,-13.184
-0.024,0.141,1.376,82.336,505.432,-32.166
-0.101,-0.095,1.356,123.474,563.049,-41.077
-0.317,-0.273,0.913,140.808,602.600,-28.259
-0.320,-0.249,0.667,154.480,637.512,25.513
-0.213,0.069,0.163,156.616,632.629,56.580
-0.221,0.171,-0.187,153.259,591.309,80.078
-0.159,0.252,-0.730,143.799,553.528,85.327
-0.086,0.318,-0.829,121.216,454.529,86.487
-0.134,0.317,-0.954,118.530,403.809,80.444
-0.174,0.281,-0.988,113.831,355.774,76.538
-0.145,0.336,-0.869,79.407,284.546,69.641
-0.197,0.469,-0.823,65.063,284.424,42.664
-0.293,0.384,-1.181,74.707,271.179,-12.939
-0.332,0.298,-1.373,88.135,226.624,-21.423
-0.345,0.259,-1.223,123.291,159.058,-21.118
-0.454,0.358,-1.164,129.700,148.987,-17.883
-0.510,0.408,-1.269,136.475,132.324,-17.883
-0.582,0.435,-1.470,129.639,115.906,-13.123
-0.584,0.486,-1.599,93.262,71.716,9.949
-0.484,0.627,-1.723,73.242,42.786,22.522
-0.367,0.711,-1.646,54.810,10.681,33.752
-0.228,0.791,-1.534,21.973,-47.424,42.908
0.044,0.825,-1.243,11.169,-67.017,39.856
0.160,0.765,-1.118,8.179,-72.144,28.137
0.283,0.568,-1.057,7.080,-65.796,23.926
0.340,0.493,-1.054,-7.874,-66.833,24.231
0.432,0.456,-0.894,-18.921,-70.801,23.376
0.457,0.411,-0.769,-30.212,-51.575,9.033
0.447,0.308,-0.743,-30.457,-30.212,1.831
0.421,0.260,-0.826,-30.212,-12.512,-4.272
0.433,0.207,-0.882,-28.320,-7.935,-7.812
0.451,0.222,-0.850,-23.926,-14.648,-5.920
0.447,0.218,-0.822,-8.484,-17.334,-8.728
0.407,0.173,-0.791,-4.761,-12.939,-9.094
0.404,0.196,-0.784,-2.197,-3.601,-2.808
0.428,0.289,-0.811,2.014,-1.465,-1.343
0.430,0.313,-0.867,14.587,-5.127,-4.211
0.400,0.320,-0.932,17.151,-12.512,-4.883
0.392,0.320,-0.903,14.587,-25.574,-3.113
0.404,0.367,-0.848,12.390,-26.733,-2.502
0.400,0.381,-0.860,13.611,-25.574,-6.042
0.398,0.367,-0.895,12.451,-26.489,-6.714
0.406,0.366,-0.913,10.071,-28.748,-5.676
0.421,0.367,-0.918,5.493,-38.391,-2.502
0.432,0.387,-0.910,3.662,-43.335,-1.892
0.419,0.387,-0.920,1.404,-49.500,-2.319
0.380,0.409,-0.945,0.366,-53.345,-1.465
0.364,0.430,-0.938,3.052,-61.584,-2.319
0.345,0.478,-0.944,7.019,-64.148,-4.517
0.333,0.505,-0.965,18.555,-70.740,-14.648
0.294,0.506,-1.007,23.315,-74.646,-21.057
0.279,0.501,-1.064,26.306,-81.848,-28.198
0.293,0.501,-1.228,21.118,-90.088,-28.503
0.304,0.518,-1.281,12.817,-102.661,-27.405
0.303,0.537,-1.281,5.127,-134.644,-29.358
0.263,0.481,-1.161,4.028,-148.743,-31.738
0.237,0.434,-1.137,-1.648,-169.312,-24.292
0.210,0.432,-1.189,-4.150,-183.105,-17.517
0.202,0.452,-1.197,-4.456,-220.947,-14.404
0.228,0.467,-1.155,-7.874,-241.638,-15.991
0.246,0.497,-1.097,-22.339,-283.691,-19.714
0.251,0.531,-0.912,-28.320,-301.086,-24.841
0.267,0.507,-0.831,-43.152,-324.524,-33.569
0.270,0.507,-0.744,-60.913,-338.867,-34.058
0.201,0.532,-0.664,-73.730,-358.093,-37.781
-0.005,0.405,-0.486,-56.641,-395.508,-66.467
-0.088,0.296,-0.364,-41.016,-414.734,-81.665
-0.124,0.257,-0.181,-40.527,-457.458,-99.060
-0.075,0.362,0.389,-49.683,-468.750,-109.741
-0.082,0.379,0.645,-54.993,-449.707,-140.625
-0.335,0.182,0.767,-51.453,-433.289,-155.334
-0.508,-0.018,0.838,-42.908,-428.528,-165.405
-0.625,-0.246,1.131,-47.729,-431.457,-153.381
-0.602,-0.152,1.340,-46.021,-430.603,-116.882
-0.460,0.157,1.778,-26.917,-416.870,-116.150
-0.409,0.091,1.973,15.442,-371.765,-151.123
-0.387,-0.388,2.260,34.058,-334.717,-159.668
-0.349,-0.586,2.232,18.433,-227.844,-126.404
-0.155,-0.549,2.000,-10.010,-178.772,-92.163
-0.035,-0.357,1.877,-40.710,-116.577,-43.640
0.061,-0.156,1.627,-30.396,-99.548,-42.358
0.051,-0.224,1.526,-10.620,-88.684,-48.035
0.054,-0.305,1.503,22.949,-76.111,-40.588
0.069,-0.268,1.423,25.452,-63.171,-27.832
0.099,-0.208,1.265,3.845,-33.630,-7.080
0.147,-0.107,1.072,-10.803,-27.649,-1.404
0.142,-0.087,1.081,-29.114,-20.630,4.822
0.135,-0.036,1.053,-25.146,-16.907,6.836
0.151,-0.007,1.018,-7.263,-19.287,5.920
0.177,0.004,1.059,-0.549,-22.156,3.967
0.193,0.012,1.084,3.662,-18.250,3.540
0.215,0.052,1.089,3.845,-12.573,3.357
0.215,0.051,1.068,4.822,-5.920,1.770
0.209,0.026,1.031,5.554,4.761,-2.380
0.207,-0.046,0.971,7.141,4.639,-1.038
0.182,-0.074,0.994,13.672,-0.183,7.935
0.212,-0.068,0.988,20.020,-1.038,12.695
0.200,-0.084,0.990,34.790,-11.475,18.066
0.174,-0.094,0.939,38.269,-14.343,24.170
0.172,-0.031,0.906,31.738,-22.949,32.288
0.176,0.048,0.956,21.912,-24.658,23.560
0.183,-0.009,0.981,12.146,-19.775,10.681
0.172,-0.091,0.992,6.042,-2.502,1.587
0.132,-0.152,0.950,8.484,2.625,5.859
0.139,-0.118,0.936,8.667,-4.272,8.850
0.161,-0.100,1.009,6.958,-9.827,4.456
0.141,-0.147,1.016,5.554,-11.536,-1.709
0.102,-0.218,0.998,1.160,-11.658,0.183
0.109,-0.198,1.019,-18.555,-9.460,8.545
0.120,-0.120,1.051,-19.897,-3.906,11.475

-0.399,-0.198,2.078,4.883,195.007,-7.874
-0.428,-0.141,2.008,14.587,271.545,6.348
-0.412,-0.065,1.647,18.677,305.603,10.681
-0.435,-0.185,1.516,2.625,358.398,24.292
-0.542,-0.511,1.572,-15.320,385.986,44.006
-0.606,-0.519,1.654,-40.833,464.661,104.126
-0.691,-0.236,1.774,-49.988,505.981,128.601
-0.655,0.023,1.727,-57.312,544.922,143.860
-0.582,0.311,1.420,-10.742,629.028,141.174
-0.414,0.524,0.434,18.494,653.198,123.779
-0.343,0.369,0.131,2.014,630.066,91.858
-0.077,0.261,-0.036,-24.841,596.863,85.754
0.062,0.213,0.172,-43.884,543.030,71.289
-0.003,0.255,0.180,-10.193,558.167,68.909
-0.111,0.476,-0.408,87.036,588.562,64.209
-0.067,0.663,-1.322,100.159,541.443,52.429
0.060,0.591,-1.216,83.984,463.013,42.542
0.158,0.533,-0.933,58.228,343.628,44.739
0.156,0.638,-0.700,73.608,325.012,46.021
0.127,0.727,-0.801,101.379,305.298,25.330
-0.028,0.763,-0.962,109.619,287.354,6.592
-0.204,0.686,-1.042,126.587,263.794,-28.992
-0.509,0.463,-1.245,124.146,255.493,-36.133
-0.575,0.400,-1.284,95.520,214.355,-26.001
-0.601,0.471,-1.165,82.153,184.875,-19.287
-0.606,0.563,-1.126,75.195,159.912,-18.311
-0.677,0.802,-1.278,75.867,134.094,-32.837
-0.687,0.868,-1.373,68.542,121.948,-46.387
-0.681,0.871,-1.396,40.771,80.322,-70.984
-0.607,0.674,-1.340,28.198,58.655,-73.975
-0.502,0.554,-1.279,1.587,15.259,-51.514
-0.231,0.419,-1.086,-5.371,-3.235,-35.339
-0.110,0.360,-1.006,-0.610,-15.381,-10.681
0.062,0.293,-0.942,3.662,-12.878,2.014
0.140,0.313,-0.907,-4.761,-12.878,19.958
0.258,0.355,-0.787,-10.376,-11.414,25.330
0.266,0.418,-0.793,-9.583,-5.005,29.053
0.275,0.440,-0.775,2.319,7.019,21.301
0.290,0.465,-0.759,5.127,10.620,17.212
0.289,0.521,-0.770,10.071,16.174,10.681
0.240,0.571,-0.853,13.245,15.686,3.662
0.219,0.575,-0.906,9.766,5.371,-5.798
0.190,0.626,-0.927,2.869,-3.723,-7.935
0.181,0.633,-0.899,-1.709,-20.142,-15.930
0.161,0.572,-0.833,-0.427,-25.330,-19.348
0.158,0.547,-0.794,5.737,-26.184,-19.653
0.205,0.498,-0.788,9.583,-20.325,-18.494
0.234,0.481,-0.822,9.827,-14.709,-16.113
0.258,0.473,-0.837,3.540,-17.456,-9.216
0.302,0.489,-0.792,0.488,-22.034,-6.775
0.313,0.495,-0.776,-1.648,-21.057,-6.470
0.283,0.494,-0.836,-2.808,-18.066,-6.104
0.263,0.500,-0.892,-10.925,-21.912,-2.014
0.267,0.517,-0.957,-14.893,-28.564,1.099
0.289,0.519,-0.932,-20.142,-43.274,5.798
0.298,0.506,-0.821,-21.423,-47.546,7.202
0.296,0.497,-0.791,-19.043,-49.377,9.644
0.336,0.509,-0.771,-19.226,-51.758,10.620
0.353,0.527,-0.759,-20.203,-56.213,9.949
0.350,0.531,-0.801,-20.874,-66.223,3.174
0.352,0.534,-0.799,-23.437,-74.219,-0.305
0.357,0.548,-0.766,-26.611,-87.158,-6.714
0.355,0.562,-0.782,-23.376,-84.473,-10.742
0.347,0.564,-0.840,-15.564,-74.341,-16.479
0.318,0.562,-0.923,-13.123,-73.242,-18.372
0.288,0.551,-0.936,-7.996,-79.468,-24.536
0.176,0.513,-0.967,-5.737,-85.876,-27.466
0.122,0.517,-1.010,0.977,-101.074,-28.687
0.053,0.556,-1.123,7.507,-109.558,-28.931
0.025,0.562,-1.182,31.799,-123.596,-29.602
-0.006,0.577,-1.310,41.016,-130.310,-28.259
0.009,0.588,-1.374,42.664,-139.893,-25.696
0.102,0.638,-1.396,16.541,-178.772,-17.639
0.144,0.659,-1.324,-5.920,-208.618,-15.381
0.154,0.651,-1.249,-40.405,-264.526,-15.320
0.073,0.574,-1.228,-46.265,-284.180,-13.306
0.032,0.540,-1.198,-52.246,-326.904,0.427
0.083,0.547,-0.927,-60.852,-353.577,10.254
0.130,0.584,-0.733,-62.988,-391.907,17.944
0.174,0.626,-0.360,-47.791,-395.813,8.972
0.195,0.594,-0.209,-13.123,-377.624,-26.672
0.249,0.523,-0.062,-1.587,-362.122,-44.373
0.266,0.485,-0.070,6.470,-345.581,-66.101
0.246,0.433,-0.154,9.216,-349.609,-69.946
0.195,0.398,-0.164,18.799,-357.727,-74.463
0.007,0.245,0.028,38.879,-378.052,-91.614
-0.072,0.249,0.244,28.870,-392.883,-96.741
-0.100,0.364,0.560,1.160,-443.115,-98.694
-0.070,0.493,1.230,19.836,-453.430,-109.558
-0.112,0.292,1.285,97.412,-377.441,-151.550
-0.365,-0.377,0.913,101.135,-326.965,-163.696
-0.448,-0.586,0.870,-9.399,-293.213,-115.723
-0.400,-0.100,1.254,-73.059,-291.687,-66.895
-0.284,0.225,1.413,-114.685,-279.541,-42.114
-0.174,0.358,1.715,-95.154,-289.612,-57.373
-0.192,0.216,1.937,2.319,-274.902,-85.266
-0.214,-0.148,1.864,52.979,-230.408,-90.576
-0.167,-0.230,1.638,77.942,-183.166,-82.947
-0.066,0.088,1.416,26.306,-138.000,-39.551
-0.030,0.248,1.387,-6.409,-128.662,-31.189
-0.007,0.259,1.405,-38.025,-114.441,-52.673
-0.030,-0.057,1.613,-35.278,-106.384,-63.232
-0.070,-0.262,1.678,10.559,-74.341,-50.964
-0.072,-0.343,1.482,37.598,-54.260,-27.405
-0.021,-0.188,1.334,33.569,-34.180,14.465
0.097,0.142,1.230,7.812,-31.006,16.479
0.116,0.159,1.202,-27.283,-17.639,0.916
0.103,0.092,1.125,-26.855,-9.155,-0.305
0.110,0.094,1.088,-21.179,0.854,7.996
0.132,0.167,1.050,-17.273,2.808,11.780
0.141,0.209,1.039,-12.024,3.601,13.672
0.149,0.242,1.038,-4.395,2.808,11.719
0.153,0.250,1.007,-3.784,1.648,8.789
0.151,0.239,1.000,-3.052,-2.869,2.563
0.153,0.190,1.012,-2.563,-3.052,0.122
0.147,0.172,1.000,-2.075,1.343,-0.488
0.139,0.163,0.980,-2.319,2.380,0.000
0.137,0.163,0.974,-2.136,2.563,0.122
0.139,0.173,0.956,1.160,0.549,-0.305

-0.196,0.176,3.012,-30.884,95.215,-24.231
-0.470,0.167,3.429,-57.617,243.347,-22.400
-1.007,0.493,3.502,-33.081,337.158,-22.827
-1.241,0.605,3.146,59.692,489.319,-50.537
-1.553,0.418,2.389,95.337,537.659,-62.439
-1.528,0.259,1.882,105.164,613.831,-62.256
-1.363,-0.164,1.054,77.637,637.695,-54.382
-1.234,-0.247,0.727,43.213,651.184,-37.476
-0.719,0.077,-0.083,16.968,623.291,6.042
-0.489,0.148,-0.238,22.705,578.979,9.094
-0.341,0.062,-0.266,31.311,524.536,-5.798
-0.311,-0.191,-0.689,36.926,523.926,-2.014
-0.315,-0.246,-0.955,48.035,487.244,36.804
-0.140,0.058,-1.046,50.354,445.435,60.730
-0.033,0.270,-0.941,68.542,368.225,69.397
-0.011,0.356,-0.985,81.055,346.008,56.091
-0.040,0.352,-1.214,81.726,307.190,47.852
0.073,0.400,-1.220,68.787,271.057,55.237
0.108,0.415,-1.050,70.618,221.924,59.998
0.078,0.403,-1.023,82.520,217.834,53.589
0.058,0.471,-1.148,89.905,218.323,44.556
0.030,0.554,-1.360,92.407,210.693,23.071
-0.075,0.609,-1.649,90.576,189.392,13.977
-0.118,0.568,-1.536,79.468,134.583,3.357
-0.227,0.490,-1.300,74.341,122.864,1.587
-0.247,0.496,-1.335,70.251,104.736,4.211
-0.168,0.550,-1.465,64.392,87.952,6.287
-0.095,0.567,-1.566,52.551,71.350,7.874
0.074,0.541,-1.566,17.944,30.823,16.785
0.133,0.495,-1.383,1.770,6.409,22.827
0.187,0.416,-1.126,-21.851,-23.071,30.457
0.353,0.366,-0.604,-26.672,-21.484,33.447
0.412,0.407,-0.571,-5.493,10.132,19.836
0.406,0.383,-0.900,9.766,18.311,5.554
0.391,0.338,-0.979,14.465,2.136,-3.235
0.396,0.335,-0.908,6.592,-5.554,1.770
0.424,0.372,-0.798,-9.216,-6.714,11.230
0.457,0.441,-0.708,-9.155,-1.038,10.498
0.449,0.439,-0.713,-4.333,2.441,6.836
0.438,0.448,-0.692,10.986,2.747,-1.404
0.416,0.438,-0.797,18.860,7.385,-7.263
0.391,0.418,-0.943,19.043,2.441,-12.573
0.392,0.452,-1.003,10.132,-9.338,-9.277
0.398,0.483,-0.920,-5.737,-21.851,-6.226
0.384,0.486,-0.764,-8.057,-22.888,-8.728
0.361,0.455,-0.761,-4.822,-23.621,-14.587
0.318,0.395,-0.918,-1.404,-21.240,-14.709
0.317,0.391,-1.009,-1.160,-24.841,-9.399
0.338,0.440,-1.046,-6.042,-33.325,-6.226
0.338,0.447,-0.987,-11.108,-42.603,-4.761
0.333,0.432,-0.816,-16.113,-52.734,-3.601
0.328,0.445,-0.799,-11.963,-50.720,-3.967
0.315,0.445,-0.846,9.216,-43.152,-13.245
0.293,0.409,-0.998,18.066,-44.800,-17.334
0.296,0.411,-1.066,20.874,-60.181,-17.273
0.347,0.471,-1.191,15.503,-73.303,-15.808
0.366,0.491,-1.176,2.075,-107.239,-15.076
0.354,0.471,-0.966,0.732,-119.934,-16.785
0.323,0.427,-0.886,11.414,-124.939,-21.545
0.270,0.369,-0.830,16.846,-123.169,-21.667
0.273,0.388,-0.840,29.236,-121.155,-22.583
0.302,0.472,-0.983,36.011,-121.643,-26.978
0.344,0.492,-1.051,37.109,-127.075,-32.288
0.384,0.523,-1.032,22.095,-151.245,-35.217
0.407,0.575,-0.980,18.494,-157.776,-39.612
0.376,0.531,-0.989,17.029,-171.631,-54.382
0.268,0.369,-0.903,11.902,-183.960,-56.519
0.241,0.312,-0.798,3.113,-210.571,-47.913
0.259,0.296,-0.611,4.272,-220.459,-44.128
0.294,0.326,-0.570,7.263,-234.924,-45.654
0.423,0.464,-0.584,0.427,-245.605,-48.462
0.459,0.531,-0.570,-10.498,-273.743,-61.157
0.377,0.489,-0.500,-4.456,-285.034,-74.585
0.314,0.365,-0.373,1.587,-297.913,-87.097
0.276,0.268,-0.128,-2.625,-338.745,-93.018
0.279,0.141,0.456,-4.639,-355.103,-96.252
0.324,0.099,0.601,-12.634,-341.919,-106.567
0.322,0.097,0.444,-19.897,-318.115,-111.694
0.257,0.111,0.294,-46.570,-304.565,-121.033
0.123,0.135,0.586,-59.692,-332.825,-122.681
0.086,-0.018,1.233,-48.584,-390.503,-129.700
0.049,-0.460,2.042,-31.433,-360.046,-129.578
0.079,-0.602,1.610,-15.808,-207.458,-106.079
0.070,-0.476,0.444,-54.871,-192.139,-67.200
0.118,-0.034,0.645,-170.471,-316.223,31.067
0.376,0.715,1.878,-169.189,-363.098,30.701
0.351,0.504,2.290,-127.930,-370.789,-7.690
0.272,0.101,2.345,-9.338,-265.991,-61.768
0.219,-0.267,1.635,22.339,-194.336,-52.612
0.239,-0.152,1.203,21.362,-112.305,-21.606
0.327,0.139,0.872,5.188,-107.239,-15.564
0.337,0.172,1.050,-28.076,-114.563,-22.278
0.248,-0.024,1.345,-27.649,-104.370,-27.405
0.200,-0.112,1.339,-7.812,-75.928,-23.437
0.220,-0.004,1.157,1.099,-67.200,-12.146
0.258,0.140,1.145,13.855,-71.289,4.578
0.293,0.253,1.262,15.015,-69.824,1.526
0.279,0.217,1.220,15.808,-58.167,-5.310
0.269,0.156,1.115,5.859,-29.114,-12.634
0.244,0.080,0.892,-3.296,-22.949,-9.766
0.232,0.079,0.885,-15.503,-30.518,0.305
0.226,0.122,1.012,-14.282,-36.316,4.028
0.213,0.137,1.023,2.625,-40.894,4.272
0.197,0.165,0.991,10.010,-41.077,2.686
0.206,0.183,1.005,5.554,-41.382,0.061
0.235,0.215,1.090,-3.906,-37.231,-2.747
0.222,0.180,1.066,-8.728,-28.809,-7.874
0.204,0.112,1.018,-8.728,-11.780,-13.428
0.183,0.076,0.973,-6.897,-5.371,-10.498
0.182,0.118,0.978,-0.732,1.282,-10.437
0.178,0.141,1.005,6.897,1.038,-13.855
0.173,0.104,1.044,26.245,-3.540,-15.137
0.158,0.068,1.071,34.119,-1.770,-13.672
0.151,0.068,1.034,42.053,3.113,-13.184
0.169,0.062,1.024,34.973,3.662,-12.329
0.192,0.081,1.020,26.917,5.432,-10.498
0.210,0.100,1.049,32.776,12.146,-13.428
0.181,0.034,1.078,43.457,20.203,-16.357
0.146,-0.043,1.004,59.753,28.687,-9.155

-0.359,-0.020,2.175,187.622,63.599,0.061
-0.323,0.016,1.179,123.047,210.144,14.343
-0.127,0.063,0.758,145.996,177.368,13.306
-0.052,-0.105,0.934,102.234,74.890,8.606
-0.075,-0.025,0.687,32.654,37.842,6.958
-0.076,0.038,0.697,-3.784,4.333,0.916
-0.080,-0.007,0.817,-24.658,-41.321,-12.268
-0.122,-0.158,0.820,-36.255,-50.049,-4.822
-0.154,-0.105,0.858,-28.748,-61.646,27.771
-0.167,0.013,1.102,-4.333,-52.002,34.851
-0.138,0.012,1.035,20.630,-14.282,31.738
-0.175,0.036,0.896,13.672,-11.169,26.794
-0.192,0.000,0.896,-11.108,-28.625,22.339
-0.078,-0.107,0.777,-22.949,-42.358,25.391
-0.002,-0.124,0.803,-39.795,-83.740,34.851
-0.225,0.074,1.142,-41.382,-87.891,36.743
-0.355,0.077,1.108,-10.925,-48.096,33.386
-0.281,0.106,0.921,-9.094,-37.231,32.776
-0.246,0.148,0.917,-20.508,-38.330,27.161
-0.226,0.135,0.965,-36.438,-40.344,0.366
-0.279,0.138,0.988,-56.519,-37.170,-11.963
-0.286,0.200,0.979,-93.689,-35.828,-41.138
-0.347,-0.183,0.911,-75.867,-30.640,-53.101
-0.350,-0.459,0.887,1.343,-11.353,1.282
-0.270,0.029,1.023,17.151,-0.061,48.096
-0.248,0.343,0.976,19.958,11.475,43.396
-0.247,0.297,0.847,1.282,4.089,5.005
-0.265,0.098,0.894,-39.307,-17.334,-39.612
-0.310,0.014,1.172,-47.607,-12.512,-35.461
-0.325,0.051,1.071,-39.124,5.737,-27.466
-0.317,0.020,0.910,-2.258,22.827,-14.709
-0.223,0.041,0.934,-1.099,12.451,-6.348
-0.187,0.080,0.963,3.784,-0.854,-5.310
-0.243,0.080,0.994,7.202,0.305,-8.423
-0.271,0.091,0.984,17.822,8.667,-9.094
-0.266,0.084,0.911,25.574,9.644,-10.071
-0.274,0.063,0.897,24.597,2.502,-13.245
-0.252,0.021,0.937,17.517,-1.282,-13.489
-0.250,0.030,0.981,11.536,-2.319,-11.963
-0.277,0.092,0.983,16.968,5.676,-7.141
-0.283,0.073,0.954,24.353,11.719,-8.484
-0.264,0.043,0.944,21.545,16.968,-13.489
-0.225,0.055,0.948,18.005,16.785,-16.296
-0.220,0.062,0.917,5.493,10.498,-23.437
-0.237,0.093,0.917,-6.165,4.883,-28.870
-0.250,0.089,0.944,-10.437,1.038,-43.945
-0.315,0.028,1.022,-6.653,6.042,-46.936
-0.369,0.018,1.055,-20.996,25.940,-46.814
-0.292,0.131,1.157,-48.584,43.030,-43.335
-0.267,0.227,1.184,-61.829,65.857,-32.898
-0.346,0.321,1.279,-27.222,118.835,-33.813
-0.341,0.346,1.317,-8.301,145.386,-47.241
-0.289,0.350,1.338,22.339,173.706,-78.918
-0.261,0.369,1.412,33.691,179.565,-93.262
-0.293,0.374,1.515,51.208,205.872,-110.718
-0.428,0.272,1.775,68.970,232.300,-110.962
-0.472,0.195,1.854,127.930,287.537,-84.045
-0.383,0.004,1.770,155.579,308.350,-61.096
-0.300,-0.118,1.662,143.433,342.834,-23.071
-0.104,-0.183,1.408,102.905,360.840,-9.644
0.073,-0.060,1.337,55.725,374.084,-0.305
0.237,0.113,1.364,30.090,377.014,-10.315
0.233,0.232,1.511,63.904,374.939,-30.701
0.145,0.109,1.460,140.137,397.095,-55.420
0.049,-0.306,1.057,151.611,416.565,-44.739
0.073,-0.450,0.839,104.675,439.697,4.761
0.278,-0.346,0.612,80.811,438.110,31.555
0.493,-0.236,0.536,80.200,429.504,51.575
0.734,-0.141,0.380,75.867,391.296,56.396
0.632,-0.162,0.364,51.453,364.258,40.405
0.458,-0.159,0.370,10.132,329.346,26.062
0.208,-0.170,0.305,19.836,328.979,30.640
0.104,-0.215,0.263,52.612,346.802,50.720
-0.083,-0.182,0.011,73.547,361.145,72.388
-0.013,-0.168,-0.181,98.389,386.597,106.628
0.239,-0.037,-0.556,85.144,382.019,110.962
0.252,0.016,-0.619,66.772,360.535,107.971
0.061,-0.011,-0.491,22.034,316.284,94.421
-0.071,-0.024,-0.463,13.855,309.387,90.881
-0.163,-0.029,-0.552,60.852,310.669,98.145
-0.154,-0.035,-0.983,89.172,307.922,102.722
-0.119,-0.016,-1.147,89.172,281.433,106.628
-0.214,0.101,-1.302,75.256,263.062,109.680
-0.311,0.180,-1.409,71.472,229.797,123.047
-0.502,0.432,-1.734,72.205,214.661,123.901
-0.521,0.597,-1.931,70.129,165.100,92.896
-0.302,0.768,-2.282,69.946,127.380,65.125
-0.124,0.712,-2.292,64.880,83.069,37.659
0.038,0.572,-2.126,28.625,-5.737,0.122
0.180,0.248,-1.444,2.869,-39.551,-9.827
0.165,0.163,-1.118,-30.212,-70.374,-16.174
0.126,0.152,-0.804,-25.940,-71.350,-12.451
0.115,0.192,-0.815,8.423,-63.293,-9.094
0.005,0.256,-1.088,32.776,-59.570,-12.268
-0.084,0.280,-1.281,73.364,-66.345,-20.874
-0.150,0.361,-1.545,77.942,-77.209,-25.696
-0.116,0.418,-1.591,62.988,-115.906,-43.884
-0.078,0.511,-1.571,57.678,-142.578,-61.035
-0.102,0.521,-1.534,57.739,-171.204,-82.092
-0.159,0.442,-1.470,58.533,-231.750,-118.774
-0.153,0.389,-1.415,49.927,-263.428,-127.930
-0.122,0.346,-1.327,15.869,-329.590,-128.418
-0.025,0.277,-1.102,-2.075,-361.572,-124.634
0.015,0.249,-0.993,-32.959,-414.246,-125.488
0.018,0.202,-0.777,-48.462,-434.692,-127.014
-0.001,0.184,-0.660,-84.656,-469.849,-117.065
-0.045,0.213,-0.375,-102.295,-483.520,-107.605
-0.058,0.241,-0.195,-118.103,-502.319,-85.876
-0.048,0.218,0.137,-110.657,-510.925,-73.425
-0.030,0.199,0.257,-68.176,-535.583,-58.533
0.002,0.185,0.461,-49.927,-550.293,-63.354
-0.067,0.185,0.549,-48.889,-580.811,-90.393
-0.404,0.208,0.769,-70.313,-590.759,-105.408
-0.603,0.236,0.938,-101.624,-587.891,-115.051
-0.831,0.315,1.341,-158.569,-534.729,-109.680
-0.786,0.322,1.525,-164.124,-488.281,-99.426
-0.688,0.310,1.664,-120.422,-390.381,-94.971
-0.635,0.207,1.687,-89.172,-358.276,-101.624
-0.681,0.145,1.594,-105.530,-320.007,-88.867

-0.554,0.358,1.745,-117.187,-193.420,-54.993
-0.555,0.239,1.712,-22.522,-155.334,-20.752
-0.515,0.169,1.593,-18.738,-127.441,-9.705
-0.461,0.219,1.527,-37.354,-58.289,-2.686
-0.316,0.274,1.374,-29.175,-35.278,0.549
-0.255,0.240,1.287,-0.916,-18.066,7.629
-0.197,0.203,1.137,0.305,-15.442,8.545
-0.175,0.241,1.116,-11.292,-17.517,7.996
-0.156,0.310,1.137,-11.902,-19.226,6.653
-0.140,0.302,1.133,-7.812,-18.250,5.981
-0.120,0.284,1.112,1.648,-11.597,6.470
-0.107,0.278,1.070,2.136,-7.629,6.775
-0.105,0.287,1.039,0.977,0.061,9.277
-0.070,0.301,0.944,0.732,-0.122,10.986
-0.051,0.298,0.933,-2.014,-9.888,7.996
-0.068,0.250,0.963,-1.892,-14.221,3.906
-0.091,0.220,0.966,-1.343,-19.897,2.869
-0.132,0.214,0.952,-3.357,-20.386,4.700
-0.139,0.228,0.958,-5.188,-18.616,6.348
-0.131,0.225,0.959,0.610,-11.353,8.301
-0.150,0.242,0.888,9.277,-5.371,8.362
-0.173,0.264,0.846,69.397,35.767,13.672
-0.101,0.173,0.947,105.225,61.096,20.447
-0.064,0.111,1.034,117.187,78.308,24.963
-0.055,0.013,1.053,102.051,74.829,21.301
-0.052,0.009,1.073,9.644,12.146,2.991
-0.088,0.138,0.991,-16.785,-11.597,-1.953
-0.087,0.162,0.961,-8.301,-9.827,0.183
-0.051,0.167,0.956,-1.160,-1.038,1.038
-0.044,0.171,0.955,2.380,2.625,-0.427
-0.055,0.145,0.952,2.502,-4.517,-6.714
-0.090,0.113,0.963,-3.845,-8.667,-8.911
-0.095,0.123,0.966,-10.498,-9.949,-5.798
-0.086,0.128,0.966,-9.155,-8.484,-2.563
-0.084,0.132,0.964,-6.653,-6.042,1.953
-0.096,0.148,0.978,-5.737,-6.287,2.991
-0.104,0.150,0.991,-2.441,-6.653,4.578
-0.107,0.139,0.996,-2.625,-5.615,5.310
-0.106,0.138,0.994,-6.104,-1.526,6.348
-0.095,0.156,0.988,-7.385,-0.244,6.348
-0.084,0.172,0.989,-7.019,-0.366,6.042
-0.077,0.193,0.993,0.183,-1.892,4.028
-0.092,0.200,0.983,4.272,-2.319,2.258
-0.095,0.172,0.971,1.892,-2.258,-1.343
-0.106,0.119,0.960,-3.784,-1.648,-2.380
-0.106,0.110,0.960,-12.939,0.061,0.061
-0.096,0.138,0.970,-14.221,0.488,2.319
-0.094,0.167,0.983,-9.705,-0.427,5.188
-0.099,0.209,1.006,-4.089,-1.038,5.554
-0.095,0.200,0.996,2.808,-0.793,4.944
-0.091,0.158,0.966,5.554,1.465,0.366
-0.099,0.140,0.962,0.122,2.441,-2.502
-0.106,0.125,0.962,-7.568,2.502,-2.380
-0.103,0.141,0.964,-7.202,2.319,0.916
-0.096,0.164,0.960,-2.930,2.808,5.371
-0.082,0.178,0.959,-2.014,2.930,4.517
-0.084,0.170,0.967,0.488,1.160,0.671
-0.099,0.154,0.973,3.479,-0.061,0.244
-0.103,0.156,0.966,6.165,-0.488,1.099
-0.099,0.155,0.957,5.066,-0.122,2.380
-0.085,0.154,0.958,2.563,0.122,2.197
-0.086,0.155,0.962,-0.610,1.831,0.732
-0.094,0.164,0.974,-1.770,2.747,-0.061
-0.097,0.163,0.980,0.366,3.540,-0.916
-0.102,0.164,0.991,3.174,4.089,-0.427
-0.100,0.170,0.990,8.789,7.812,1.282
-0.088,0.154,0.948,9.888,9.216,1.526
-0.081,0.138,0.931,7.812,8.545,1.404
-0.081,0.134,0.933,-1.587,2.991,0.793
-0.091,0.151,0.967,-4.028,1.221,0.732
-0.097,0.162,0.982,-1.038,1.343,1.343
-0.092,0.155,0.989,3.235,1.953,1.953
-0.085,0.150,0.979,4.944,3.540,3.418
-0.079,0.162,0.975,1.587,4.822,2.991
-0.084,0.170,0.985,-1.831,6.287,0.671
-0.099,0.161,1.011,0.671,6.348,-0.366
-0.106,0.148,1.015,3.845,6.836,-0.671
-0.104,0.138,1.011,5.249,10.132,1.465
-0.082,0.137,0.983,4.639,12.329,2.991
-0.072,0.147,0.967,1.648,15.198,4.456
-0.060,0.177,0.966,1.953,14.343,4.089
-0.061,0.178,0.974,9.644,10.071,1.099
-0.070,0.154,0.988,11.719,8.972,-0.488
-0.067,0.144,0.997,10.559,9.583,-1.648
-0.056,0.147,1.001,6.897,14.709,-1.831
-0.055,0.153,0.996,7.507,17.395,-1.648
-0.059,0.155,0.993,10.925,20.142,-2.869
-0.063,0.149,1.002,12.451,20.203,-3.601
-0.057,0.143,1.009,17.761,21.118,-3.845
-0.025,0.127,1.003,21.545,23.071,-3.845
-0.017,0.112,0.985,27.100,25.696,-3.662
-0.007,0.094,0.947,25.757,25.818,-3.113
0.004,0.087,0.930,22.766,25.513,-2.869
0.016,0.075,0.911,15.564,21.179,-2.502
0.035,0.057,0.877,10.925,15.625,-0.916
0.042,0.065,0.875,1.404,1.709,3.113
0.037,0.092,0.911,-3.479,-3.235,3.113
0.028,0.098,0.940,-10.010,-7.568,0.793
0.004,0.100,0.989,-8.789,-8.545,0.977
0.000,0.104,0.998,-1.160,-8.606,3.235
-0.008,0.105,1.013,0.366,-7.812,3.113
-0.013,0.100,1.020,0.000,-6.470,2.380
-0.016,0.095,1.017,-1.953,-2.197,1.770
-0.015,0.102,1.001,-1.709,-0.854,2.075
-0.017,0.111,0.999,1.770,-1.587,2.502
-0.021,0.103,1.011,2.869,-2.136,1.526
-0.024,0.089,1.013,2.808,-1.038,0.977
-0.020,0.089,0.988,0.854,0.000,2.808
-0.011,0.109,0.980,-2.441,0.610,4.883
-0.001,0.140,0.978,-5.798,0.305,4.944
-0.004,0.135,0.978,-4.272,-0.854,3.174
-0.013,0.120,0.981,-1.465,-3.845,-0.305
-0.035,0.098,1.002,-2.625,-4.272,-0.366
-0.041,0.106,1.009,-5.859,-1.587,2.747
-0.044,0.140,1.010,-5.676,0.366,3.845
-0.045,0.150,1.011,-4.028,2.441,2.991
-0.058,0.149,1.063,-3.967,2.136,1.526
-0.076,0.139,1.111,-0.427,3.357,0.000
-0.102,0.140,1.216,2.686,6.409,1.038

-0.512,0.251,1.901,66.101,230.469,14.282
-0.520,0.255,1.882,112.549,294.861,20.569
-0.462,0.192,1.705,132.263,322.754,22.156
-0.397,0.146,1.572,137.146,375.122,21.484
-0.272,0.044,1.430,123.291,399.719,19.348
-0.208,0.005,1.384,112.061,422.852,18.860
-0.141,-0.005,1.316,121.033,454.468,26.123
-0.008,-0.019,1.074,133.545,460.510,33.020
0.085,-0.028,0.907,137.024,452.759,48.096
0.255,-0.037,0.611,125.732,442.078,55.725
0.290,-0.047,0.518,84.229,424.744,69.519
0.353,-0.055,0.352,62.439,420.349,75.562
0.362,-0.040,0.253,50.232,412.964,81.909
0.343,-0.005,0.146,59.631,390.259,96.619
0.267,0.039,0.004,62.927,384.827,100.159
0.199,0.036,-0.026,67.139,380.676,107.727
0.075,0.084,-0.213,75.989,381.103,116.821
0.052,0.100,-0.353,75.073,387.878,134.399
0.035,0.133,-0.561,62.317,384.521,140.137
0.038,0.158,-0.615,37.598,366.272,139.038
-0.034,0.172,-0.675,38.330,354.797,134.277
-0.141,0.184,-0.743,49.255,344.665,130.920
-0.276,0.220,-0.874,82.153,334.656,131.470
-0.593,0.386,-1.295,98.694,331.116,132.507
-0.790,0.538,-1.558,133.972,302.734,121.826
-1.004,0.906,-2.188,135.559,264.893,101.013
-0.796,1.056,-2.521,57.983,105.347,11.047
0.119,1.017,-2.862,-9.644,2.563,-45.471
0.531,0.794,-2.610,-116.211,-150.757,-120.056
0.564,0.303,-1.345,-140.991,-174.011,-115.479
0.388,0.163,-0.706,-146.667,-158.875,-84.534
0.297,0.089,-0.214,-78.857,-64.148,-7.202
0.396,0.021,0.145,-23.193,-28.870,10.498
0.495,0.051,0.025,49.866,3.967,21.667
0.613,0.208,-0.500,64.392,12.390,25.757
0.629,0.301,-0.760,55.786,12.817,24.658
0.606,0.452,-1.083,40.222,5.432,16.174
0.570,0.476,-1.138,14.526,-13.306,-10.437
0.463,0.432,-1.071,7.446,-23.193,-23.865
0.432,0.382,-0.999,3.174,-33.447,-33.386
0.421,0.334,-0.942,-0.977,-51.392,-40.283
0.425,0.271,-0.891,-1.038,-58.228,-38.574
0.433,0.256,-0.892,4.028,-68.176,-27.954
0.503,0.289,-0.947,5.554,-70.984,-25.024
0.556,0.316,-0.978,6.470,-78.003,-31.738
0.607,0.348,-1.001,6.897,-87.402,-38.330
0.593,0.343,-0.990,2.197,-113.770,-47.791
0.547,0.305,-0.926,-2.380,-125.732,-48.706
0.524,0.295,-0.890,-10.193,-141.235,-45.166
0.494,0.289,-0.844,-13.977,-145.020,-40.649
0.496,0.274,-0.828,-17.944,-152.222,-26.001
0.557,0.265,-0.797,-18.677,-156.677,-19.653
0.606,0.280,-0.796,-19.531,-161.987,-17.395
0.656,0.297,-0.803,-25.269,-177.063,-24.475
0.681,0.301,-0.757,-30.090,-187.378,-32.288
0.647,0.287,-0.699,-37.903,-215.942,-43.640
0.561,0.264,-0.573,-40.039,-229.370,-42.603
0.538,0.250,-0.512,-37.476,-243.164,-27.527
0.573,0.257,-0.415,-35.095,-244.202,-18.433
0.644,0.286,-0.403,-37.964,-245.178,-15.869
0.738,0.337,-0.374,-44.495,-247.864,-25.146
0.730,0.344,-0.332,-40.344,-276.550,-42.786
0.666,0.323,-0.220,-33.386,-297.058,-49.377
0.612,0.301,-0.148,-28.503,-326.172,-61.646
0.519,0.235,-0.017,-29.114,-336.182,-65.674
0.492,0.219,0.036,-32.898,-346.008,-67.383
0.486,0.215,0.119,-39.917,-360.718,-71.899
0.413,0.201,0.343,-35.522,-366.638,-81.055
0.334,0.156,0.410,-26.978,-377.624,-100.586
0.153,0.037,0.469,-42.603,-378.296,-105.774
0.091,0.032,0.556,-101.196,-359.863,-101.929
-0.041,0.110,0.837,-112.183,-354.431,-96.802
-0.132,0.122,0.928,-107.971,-346.252,-91.675
-0.206,0.085,1.003,-114.075,-327.820,-88.074
-0.180,0.087,1.062,-125.488,-274.536,-82.275
-0.166,0.216,1.162,-106.873,-255.737,-82.764
-0.271,0.245,1.276,-8.484,-214.416,-64.575
-0.446,0.153,1.494,-5.005,-188.965,-60.608
-0.404,0.170,1.625,-44.678,-178.528,-63.843
-0.358,0.210,1.705,-98.816,-179.077,-59.326
-0.345,0.112,1.616,-61.584,-156.067,-51.331
-0.305,-0.005,1.525,11.719,-109.497,-38.025
-0.274,-0.045,1.439,-2.319,-107.483,-27.893
-0.239,0.016,1.464,-42.114,-85.999,-11.719
-0.154,0.078,1.433,-39.551,-61.768,-8.911
-0.122,0.075,1.317,-13.855,-21.973,-2.380
-0.037,0.094,1.085,-8.301,-13.000,1.831
0.005,0.131,1.018,-7.568,-11.902,1.770
0.069,0.153,0.925,-7.141,-19.897,0.061
0.083,0.154,0.933,-18.005,-37.354,-5.371
0.041,0.155,1.006,-25.757,-40.771,-8.728
0.017,0.170,1.050,-31.250,-40.710,-10.193
0.005,0.188,1.088,-28.870,-32.837,-8.484
-0.007,0.204,1.109,-21.729,-28.076,-6.226
-0.007,0.198,1.092,-8.972,-20.447,-2.014
-0.008,0.162,1.010,-9.033,-18.005,-1.221
0.001,0.153,0.995,-19.226,-19.775,-1.953
-0.026,0.174,1.073,-23.804,-21.362,-3.479
-0.046,0.190,1.124,-15.381,-17.029,-3.174
-0.054,0.188,1.148,-2.197,-11.841,-1.892
-0.060,0.175,1.101,16.296,0.122,1.404
-0.039,0.131,0.986,15.137,2.991,3.296
-0.023,0.121,0.964,8.118,2.869,4.578
-0.018,0.129,0.955,-4.639,0.977,5.859
-0.020,0.169,0.935,-4.822,-0.305,6.958
-0.014,0.178,0.931,-1.709,-4.883,7.385
-0.031,0.168,0.955,-0.488,-7.629,6.104
-0.034,0.165,0.970,1.587,-10.559,5.493
-0.034,0.174,0.998,2.625,-10.010,5.188
-0.043,0.183,1.004,2.136,-5.859,3.113
-0.061,0.187,0.990,0.305,-4.028,2.014
-0.064,0.179,0.980,-2.319,-3.784,1.709
-0.055,0.172,0.986,-3.113,-7.751,4.639
-0.061,0.168,0.988,0.549,-9.460,5.554
-0.069,0.158,0.986,1.160,-6.714,4.456
-0.075,0.162,1.002,-2.441,-3.906,4.028
-0.080,0.174,1.009,-3.845,-2.197,5.066
-0.059,0.178,0.988,-2.747,-2.930,6.409
-0.048,0.179,0.983,0.916,-3.418,6.775

-0.420,0.221,2.105,70.190,270.691,15.808
-0.415,0.250,2.046,130.493,325.378,0.427
-0.462,0.188,1.874,146.606,341.309,-5.066
-0.470,0.154,1.776,142.456,379.272,-7.080
-0.397,0.091,1.632,134.094,402.954,-6.165
-0.298,0.104,1.490,127.380,459.045,-10.254
-0.086,0.061,1.044,122.559,482.239,-11.169
0.002,0.048,0.825,115.784,494.812,-6.836
0.062,0.044,0.607,114.441,484.436,21.729
0.091,0.143,0.240,114.258,473.572,36.621
0.093,0.224,0.110,134.155,451.172,49.133
0.036,0.231,-0.150,150.024,436.279,47.729
-0.035,0.174,-0.296,163.696,405.273,59.326
-0.095,0.078,-0.531,152.405,394.897,74.890
-0.069,0.077,-0.627,131.348,388.550,89.478
-0.003,0.171,-0.720,100.342,377.563,101.135
0.010,0.201,-0.748,106.934,365.173,98.511
-0.020,0.229,-0.764,133.850,336.792,87.708
-0.133,0.303,-0.866,151.855,327.942,83.130
-0.216,0.330,-1.007,191.101,322.082,82.642
-0.411,0.438,-1.409,204.956,314.880,90.942
-0.481,0.549,-1.632,218.811,280.823,110.840
-0.423,0.864,-2.078,219.482,251.343,110.291
-0.263,0.961,-2.251,189.453,161.438,77.454
0.136,0.881,-2.222,140.686,101.318,52.002
0.275,0.733,-1.943,72.083,41.626,25.757
0.347,0.557,-1.529,-50.415,-36.743,-12.146
0.380,0.255,-0.674,-66.711,-48.523,-18.982
0.413,0.163,-0.389,-18.860,-24.353,-10.742
0.520,0.147,-0.305,18.127,-2.747,-0.916
0.561,0.217,-0.448,65.613,28.320,15.320
0.534,0.430,-0.825,69.519,35.156,20.325
0.521,0.512,-0.971,45.593,28.809,20.630
0.509,0.554,-1.046,23.804,15.869,14.282
0.459,0.534,-0.973,3.113,1.953,4.456
0.393,0.488,-0.874,-6.775,-11.719,-13.611
0.373,0.366,-0.785,-0.793,-12.390,-16.479
0.413,0.331,-0.786,0.732,-15.808,-10.010
0.492,0.321,-0.785,-5.493,-19.836,-4.639
0.516,0.344,-0.758,-15.930,-26.428,-2.502
0.543,0.398,-0.720,-14.648,-28.015,-6.592
0.550,0.407,-0.720,-5.615,-26.672,-19.165
0.551,0.366,-0.683,-2.930,-26.001,-23.743
0.536,0.341,-0.660,-3.174,-23.560,-21.973
0.509,0.329,-0.696,-2.991,-20.630,-16.541
0.509,0.346,-0.748,-3.723,-16.113,-4.395
0.519,0.385,-0.835,-5.737,-16.724,-1.465
0.519,0.401,-0.851,-8.911,-19.287,-1.465
0.511,0.409,-0.850,-13.184,-25.635,-4.944
0.504,0.386,-0.832,-14.038,-28.259,-6.104
0.516,0.365,-0.819,-21.118,-32.532,-5.005
0.531,0.339,-0.775,-23.560,-33.630,-3.174
0.534,0.340,-0.760,-18.921,-32.898,-0.854
0.540,0.355,-0.758,-15.686,-31.433,-1.221
0.538,0.364,-0.766,-9.705,-31.189,-3.845
0.533,0.368,-0.797,-7.507,-32.410,-4.883
0.528,0.368,-0.818,-7.019,-36.560,-6.104
0.496,0.369,-0.866,-6.531,-40.039,-6.653
0.476,0.374,-0.891,-6.165,-48.889,-5.554
0.450,0.409,-0.960,-6.836,-54.321,-5.615
0.442,0.431,-0.992,-6.958,-67.078,-10.681
0.435,0.452,-1.047,-5.188,-74.463,-15.320
0.450,0.448,-1.066,-4.578,-83.313,-20.874
0.461,0.441,-1.068,-11.475,-106.079,-35.095
0.454,0.411,-1.013,-15.808,-119.629,-42.358
0.439,0.391,-0.959,-24.048,-145.752,-52.551
0.428,0.366,-0.846,-27.283,-156.189,-54.565
0.439,0.358,-0.801,-31.006,-172.424,-56.091
0.463,0.332,-0.725,-30.701,-180.786,-55.176
0.477,0.327,-0.697,-30.884,-196.411,-50.964
0.567,0.352,-0.677,-37.476,-201.111,-51.697
0.621,0.370,-0.659,-57.434,-211.670,-64.819
0.648,0.382,-0.552,-62.866,-221.619,-76.111
0.614,0.371,-0.476,-63.904,-246.948,-96.069
0.542,0.303,-0.341,-59.937,-256.042,-100.891
0.530,0.260,-0.290,-54.443,-263.794,-101.807
0.536,0.230,-0.254,-51.758,-273.437,-90.759
0.572,0.199,-0.211,-57.251,-273.315,-87.952
0.569,0.183,-0.194,-78.369,-279.785,-87.219
0.585,0.212,-0.085,-93.750,-287.903,-87.280
0.635,0.253,0.053,-108.215,-306.946,-104.675
0.662,0.236,0.349,-88.623,-326.721,-125.977
0.560,0.142,0.422,-37.109,-374.390,-172.058
0.250,-0.062,0.474,-41.443,-382.202,-178.711
0.128,-0.089,0.532,-131.042,-344.971,-147.095
0.112,0.004,0.810,-178.589,-314.758,-123.291
0.154,0.048,0.969,-167.114,-294.861,-108.093
0.104,-0.008,1.099,-122.498,-305.481,-119.019
0.006,-0.068,1.093,-90.271,-313.171,-132.324
-0.089,-0.105,1.098,-118.408,-278.015,-132.141
-0.190,-0.042,1.247,-153.992,-241.089,-115.784
-0.173,-0.005,1.338,-156.067,-176.147,-82.275
-0.128,-0.016,1.317,-127.930,-166.504,-69.824
-0.133,-0.033,1.227,-83.069,-168.396,-50.293
-0.100,-0.032,1.161,-82.214,-168.457,-43.884
-0.084,-0.011,1.205,-98.816,-164.124,-39.734
-0.104,0.021,1.317,-101.074,-159.424,-39.978
-0.129,0.034,1.367,-94.116,-147.339,-38.513
-0.134,0.079,1.460,-88.623,-140.564,-34.180
-0.101,0.088,1.487,-71.533,-122.375,-24.170
-0.042,0.068,1.498,-60.242,-108.459,-21.362
-0.041,0.047,1.482,-29.480,-69.458,-13.367
-0.055,0.041,1.433,-20.020,-47.607,-4.333
-0.048,0.054,1.329,-14.771,-26.489,7.019
-0.023,0.073,1.217,-6.470,-4.395,25.330
0.036,0.099,1.078,-1.404,-4.211,27.344
0.054,0.109,1.055,-1.099,-9.705,19.775
0.073,0.129,1.078,-10.071,-11.963,12.634
0.068,0.134,1.117,-20.142,-13.367,0.305
0.046,0.104,1.151,-13.000,-12.512,-2.258
0.039,0.088,1.153,-2.991,-8.240,0.305
0.026,0.093,1.155,-2.686,-4.944,1.953
0.022,0.090,1.125,-2.747,-3.174,3.479
0.046,0.076,1.093,-6.348,-7.751,7.141
0.051,0.082,1.095,-8.179,-8.301,7.385
0.051,0.093,1.090,-6.042,-0.732,5.310
0.040,0.099,1.075,-2.991,2.869,3.479
0.027,0.098,1.071,-2.502,6.287,2.075
0.011,0.086,1.049,-2.502,6.897,3.296

-0.492,0.253,2.002,43.152,117.432,-5.798
-0.543,0.284,1.989,84.229,196.106,9.888
-0.544,0.429,1.887,97.534,237.427,8.911
-0.529,0.477,1.793,114.746,313.416,-21.545
-0.482,0.383,1.515,124.084,342.773,-35.950
-0.407,0.296,1.410,129.639,365.967,-44.067
-0.328,0.231,1.371,103.394,398.987,-61.279
-0.272,0.179,1.497,76.538,412.353,-74.768
-0.282,0.152,1.532,50.903,455.322,-101.135
-0.135,0.076,1.328,58.350,480.286,-104.309
0.019,0.071,1.104,96.436,490.478,-82.031
0.241,0.059,0.649,113.037,481.140,-70.374
0.273,0.044,0.493,132.568,448.425,-52.063
0.244,-0.036,0.163,133.179,431.824,-42.908
0.217,-0.050,-0.028,121.582,419.678,-32.532
0.216,-0.098,-0.360,72.510,404.419,-15.442
0.174,-0.125,-0.419,46.631,390.076,-7.690
0.145,-0.116,-0.411,44.128,343.079,15.381
0.210,-0.003,-0.409,69.214,320.618,19.714
0.229,0.000,-0.527,121.399,296.387,1.709
0.189,-0.103,-0.807,129.578,288.025,-5.188
0.168,-0.147,-0.907,96.558,274.902,-5.554
0.078,-0.195,-1.031,72.266,271.667,0.366
0.044,-0.149,-1.058,82.581,250.488,16.052
0.016,0.010,-1.261,125.305,235.168,15.808
0.016,0.075,-1.438,175.720,217.651,9.827
0.037,0.121,-1.630,235.413,166.931,-6.226
0.190,0.110,-1.950,217.407,136.047,-11.719
0.253,0.083,-1.949,96.313,75.989,-13.184
0.275,0.047,-1.508,41.992,51.941,-8.667
0.297,0.019,-1.256,16.541,23.621,3.479
0.448,-0.068,-1.014,24.719,15.503,9.338
0.554,-0.094,-0.953,14.587,5.920,14.709
0.636,-0.055,-0.848,2.747,4.089,10.437
0.599,-0.026,-0.811,-0.610,4.578,3.113
0.561,-0.010,-0.777,9.155,7.446,-3.052
0.537,0.006,-0.729,14.404,6.165,-0.732
0.548,0.008,-0.733,20.874,3.906,7.080
0.607,0.017,-0.740,17.822,4.333,10.864
0.629,0.033,-0.727,5.554,5.676,14.771
0.646,0.075,-0.712,2.136,5.371,13.367
0.643,0.089,-0.727,3.784,1.160,3.784
0.636,0.088,-0.769,8.057,-1.160,-1.953
0.633,0.070,-0.773,10.376,-2.319,-6.409
0.620,0.049,-0.773,9.766,-4.089,-9.094
0.600,0.022,-0.784,10.986,-5.737,-8.179
0.604,0.016,-0.793,9.644,-10.864,-5.798
0.595,-0.000,-0.799,7.080,-12.878,-4.578
0.587,-0.003,-0.810,0.488,-13.245,0.610
0.595,0.018,-0.847,-3.296,-12.756,4.089
0.609,0.037,-0.855,-13.977,-12.634,8.057
0.611,0.064,-0.850,-15.869,-13.855,8.362
0.603,0.064,-0.853,-12.817,-18.494,6.653
0.568,0.036,-0.889,-11.230,-22.034,6.042
0.547,0.025,-0.920,-10.315,-25.635,6.531
0.527,0.014,-0.960,-10.498,-31.738,10.620
0.500,0.008,-1.056,-12.207,-35.522,13.184
0.490,0.011,-1.090,-19.775,-48.767,16.663
0.480,0.024,-1.097,-22.583,-57.495,16.968
0.479,0.030,-1.081,-25.879,-74.951,17.517
0.499,0.025,-1.042,-28.259,-83.557,18.433
0.516,0.021,-1.025,-33.691,-98.267,19.165
0.543,0.023,-0.972,-36.438,-105.713,18.921
0.549,0.028,-0.933,-37.415,-122.498,17.273
0.540,0.048,-0.858,-33.447,-130.737,16.541
0.536,0.059,-0.826,-26.184,-138.611,16.785
0.557,0.081,-0.791,-7.996,-149.902,18.127
0.588,0.087,-0.795,-2.991,-152.893,18.005
0.615,0.084,-0.803,-7.996,-158.936,13.550
0.639,0.078,-0.783,-15.808,-164.856,10.620
0.644,0.085,-0.744,-32.532,-181.824,5.005
0.624,0.099,-0.621,-32.593,-192.139,2.136
0.602,0.089,-0.557,-13.733,-214.478,2.930
0.591,0.063,-0.476,-4.333,-223.389,8.057
0.629,0.077,-0.469,-17.334,-227.905,13.367
0.705,0.104,-0.524,-40.771,-222.656,10.864
0.720,0.106,-0.533,-106.079,-239.197,-2.258
0.665,0.143,-0.355,-136.536,-264.221,-9.705
0.616,0.174,-0.194,-153.992,-288.574,-17.761
0.573,0.194,-0.031,-130.249,-322.815,-34.119
0.503,0.198,0.264,-95.520,-336.914,-40.283
0.466,0.167,0.373,-19.104,-359.253,-42.542
0.386,0.087,0.477,1.221,-361.267,-38.513
0.348,0.070,0.507,-25.024,-336.731,-24.048
0.284,0.079,0.650,-61.279,-317.505,-14.526
0.259,0.100,0.768,-117.126,-301.208,2.686
0.161,0.144,1.000,-120.422,-305.237,5.737
0.103,0.148,1.051,-98.328,-293.640,2.441
0.022,0.168,1.079,-96.130,-274.597,11.475
0.014,0.220,1.109,-104.248,-257.080,22.949
0.013,0.281,1.162,-96.924,-236.816,28.870
-0.010,0.327,1.246,-78.491,-234.985,20.569
-0.045,0.316,1.266,-74.829,-234.131,-1.404
-0.069,0.303,1.399,-89.172,-225.098,-7.996
-0.062,0.289,1.472,-87.463,-183.899,-15.869
-0.075,0.208,1.395,-65.918,-160.461,-14.526
-0.079,0.156,1.274,-31.921,-140.808,3.479
-0.055,0.107,1.135,-32.166,-147.217,16.663
-0.024,0.141,1.192,-39.978,-155.518,27.161
-0.017,0.235,1.281,-45.227,-136.230,31.799
-0.012,0.272,1.252,-45.776,-110.840,31.738
-0.005,0.294,1.213,-48.279,-78.125,28.076
0.008,0.294,1.178,-47.363,-75.500,25.146
0.017,0.305,1.209,-48.950,-69.153,19.531
0.011,0.353,1.247,-45.593,-59.326,18.005
0.016,0.366,1.237,-22.461,-43.335,18.372
0.017,0.352,1.168,-9.888,-37.537,18.188
0.014,0.331,1.108,0.793,-28.015,17.578
0.013,0.321,1.043,-0.854,-25.269,16.418
0.011,0.330,1.040,-3.296,-22.827,14.832
0.011,0.336,1.038,-3.052,-17.944,11.780
0.011,0.330,1.018,-2.075,-16.785,10.376
0.016,0.325,1.012,-1.587,-14.160,7.385
0.004,0.323,1.005,-2.686,-11.658,5.005
-0.005,0.326,1.013,-6.226,-6.775,-0.061
-0.019,0.315,1.031,-4.333,-4.517,-2.930
-0.035,0.297,1.025,4.028,-1.160,-6.226
-0.053,0.257,0.984,7.019,-0.732,-4.578
-0.046,0.252,0.962,7.080,0.122,1.282

0.297,-0.268,-1.840,38.330,39.551,-2.808
0.296,-0.206,-1.401,-46.692,15.747,21.057
0.505,-0.085,-0.652,-37.720,10.437,29.968
0.655,-0.061,-0.467,13.794,15.076,33.691
0.821,-0.012,-0.416,34.058,20.630,27.710
0.806,-0.004,-0.500,59.814,32.104,11.536
0.687,-0.011,-0.783,63.416,34.058,5.554
0.612,-0.017,-0.912,58.411,32.166,1.648
0.537,-0.010,-0.988,32.776,21.973,3.418
0.506,0.028,-1.001,18.738,16.724,9.766
0.553,0.054,-0.974,-5.493,5.859,15.930
0.625,0.091,-0.864,-12.451,-0.305,12.085
0.635,0.093,-0.806,-11.047,-11.047,-0.977
0.615,0.059,-0.769,-4.456,-14.771,-7.141
0.597,0.031,-0.788,4.944,-19.714,-11.597
0.590,-0.003,-0.815,1.831,-21.729,-8.972
0.599,-0.003,-0.804,-5.432,-24.048,-4.639
0.637,0.009,-0.740,-15.808,-27.283,2.808
0.661,0.015,-0.700,-17.151,-27.527,5.066
0.685,0.022,-0.673,-13.489,-23.376,5.554
0.708,0.029,-0.651,-8.789,-19.775,3.662
0.705,0.021,-0.651,0.610,-14.526,-0.427
0.696,-0.008,-0.654,3.845,-12.634,-1.343
0.691,-0.016,-0.657,4.333,-7.935,1.526
0.703,-0.003,-0.675,1.892,-6.042,3.174
0.719,0.007,-0.667,-4.395,-2.563,5.310
0.750,0.030,-0.654,-5.615,-0.305,4.883
0.747,0.038,-0.668,1.038,3.174,-1.770
0.699,0.013,-0.704,7.568,3.296,-5.798
0.674,-0.006,-0.732,12.878,2.625,-8.362
0.658,-0.019,-0.767,11.597,0.977,-8.362
0.636,-0.039,-0.818,7.507,0.427,-6.531
0.630,-0.039,-0.828,-1.831,-1.099,-0.977
0.632,-0.022,-0.813,-4.272,-2.869,1.648
0.641,-0.016,-0.796,-2.380,-6.653,4.822
0.655,-0.005,-0.783,-1.831,-8.057,5.310
0.655,0.001,-0.783,-5.737,-10.925,5.188
0.646,0.005,-0.788,-8.301,-12.451,5.188
0.640,0.002,-0.806,-9.216,-15.686,5.371
0.619,-0.014,-0.877,-8.789,-18.311,5.798
0.598,-0.023,-0.920,-8.667,-22.034,6.714
0.543,-0.049,-1.006,-7.080,-32.837,9.094
0.519,-0.066,-1.051,-5.188,-40.161,10.742
0.500,-0.077,-1.092,-9.033,-58.472,16.541
0.481,-0.075,-1.124,-15.503,-68.237,19.470
0.480,-0.069,-1.111,-24.048,-88.745,22.400
0.488,-0.050,-1.047,-22.278,-100.220,23.193
0.496,-0.036,-1.012,-14.465,-123.047,25.085
0.517,-0.007,-0.959,-12.207,-134.155,26.001
0.530,0.001,-0.942,-13.306,-159.485,30.029
0.543,0.020,-0.866,-15.930,-173.218,32.043
0.542,0.042,-0.808,-15.625,-192.261,32.532
0.573,0.089,-0.705,-12.146,-196.838,30.640
0.592,0.097,-0.675,-6.958,-200.928,27.222
0.605,0.097,-0.644,2.319,-216.858,21.423
0.627,0.097,-0.566,2.625,-227.112,19.836
0.640,0.095,-0.520,-3.113,-244.080,17.822
0.660,0.102,-0.407,-6.470,-249.512,18.799
0.655,0.099,-0.331,-6.531,-257.080,19.653
0.666,0.116,-0.178,-2.075,-261.780,20.630
0.679,0.130,-0.120,8.606,-268.005,19.470
0.688,0.169,0.018,14.099,-269.653,17.029
0.685,0.186,0.090,20.325,-271.729,5.249
0.636,0.171,0.185,17.334,-271.667,-2.625
0.603,0.164,0.260,9.888,-272.522,-7.629
0.571,0.170,0.368,-1.709,-277.893,-13.672
0.493,0.187,0.603,1.648,-280.396,-18.921
0.448,0.169,0.686,15.442,-291.016,-31.799
0.325,0.121,0.748,11.353,-295.532,-35.583
0.271,0.110,0.761,-31.372,-282.593,-33.630
0.207,0.121,0.795,-63.538,-266.113,-30.884
0.183,0.135,0.839,-114.441,-234.863,-27.710
0.116,0.220,0.981,-107.605,-234.375,-27.954
0.081,0.209,1.025,-34.058,-252.319,-44.128
-0.017,0.146,1.088,-19.958,-265.442,-54.321
-0.074,0.126,1.134,-32.959,-271.240,-59.814
-0.099,0.140,1.299,-93.201,-245.300,-56.030
-0.095,0.148,1.366,-111.023,-224.121,-51.880
-0.095,0.138,1.398,-94.177,-191.711,-48.279
-0.096,0.111,1.396,-79.041,-182.068,-44.678
-0.086,0.104,1.395,-62.866,-155.396,-35.156
-0.053,0.103,1.448,-60.547,-138.733,-31.494
-0.042,0.113,1.494,-56.335,-112.366,-22.522
-0.012,0.138,1.541,-47.546,-98.328,-15.869
0.002,0.139,1.487,-19.348,-60.425,0.366
0.042,0.132,1.269,-12.329,-44.067,8.484
0.068,0.150,1.195,-15.015,-28.076,19.348
0.092,0.212,1.126,-12.817,-24.414,21.301
0.106,0.224,1.077,-6.226,-22.095,22.400
0.125,0.223,1.025,-0.916,-21.423,21.729
0.157,0.228,0.992,-7.141,-21.851,19.226
0.154,0.242,1.014,-23.132,-21.973,12.085
0.132,0.268,1.059,-26.367,-22.034,8.911
0.117,0.277,1.075,-23.987,-21.729,4.395
0.095,0.269,1.092,-18.616,-20.386,2.991
0.081,0.256,1.074,-7.568,-14.893,1.587
0.066,0.227,1.014,-7.446,-11.536,1.709
0.067,0.217,0.985,-10.742,-8.545,2.380
0.067,0.222,0.973,-16.968,-6.653,4.272
0.061,0.251,0.983,-17.395,-6.897,4.456
0.060,0.259,0.998,-12.390,-7.507,2.258
0.041,0.243,1.010,-7.324,-6.104,0.183
0.032,0.223,0.996,-2.197,0.427,-0.610
0.021,0.201,0.943,-3.662,2.502,1.282
0.024,0.206,0.939,-8.606,0.427,6.592
0.040,0.234,0.944,-9.460,-0.183,8.301
0.042,0.248,0.942,-9.277,-0.244,8.911
0.042,0.255,0.941,-7.324,-2.075,7.690
0.046,0.253,0.938,-6.348,-2.808,6.836
0.048,0.250,0.937,-7.324,-3.540,5.554
0.045,0.247,0.934,-9.277,-3.296,5.127
0.045,0.253,0.930,-11.963,-2.441,6.104
0.044,0.268,0.930,-12.268,-2.136,6.409
0.047,0.270,0.935,-9.216,-0.610,5.615
0.047,0.277,0.932,-4.456,-0.244,5.066
0.045,0.278,0.919,-0.549,-1.160,4.883
0.047,0.277,0.914,-4.272,-5.432,5.737
0.051,0.287,0.942,-7.629,-6.836,5.310
0.047,0.293,0.953,-8.362,-5.554,2.991

-0.716,0.153,1.878,132.019,238.708,-8.850
-0.683,0.148,1.857,136.047,326.416,1.038
-0.568,0.126,1.684,141.602,362.366,1.831
-0.499,0.077,1.523,154.358,413.025,10.010
-0.286,-0.003,1.184,147.705,435.913,19.531
-0.158,0.003,0.991,132.202,463.562,30.090
0.054,-0.011,0.545,88.074,518.250,41.931
0.106,-0.023,0.331,74.219,531.860,44.128
0.119,0.023,0.177,82.581,519.348,48.462
0.163,0.135,-0.079,104.919,498.779,46.509
0.170,0.080,-0.249,143.188,445.984,41.504
0.147,-0.013,-0.551,142.395,421.265,50.903
0.144,-0.010,-0.654,87.158,399.658,74.585
0.115,0.031,-0.793,45.105,397.278,83.252
0.115,0.077,-0.839,15.991,389.648,92.102
0.116,0.136,-0.893,21.545,358.093,95.398
0.121,0.256,-1.085,39.795,344.788,86.792
0.106,0.321,-1.242,93.384,314.758,51.575
0.017,0.476,-1.642,127.808,289.856,33.203
-0.006,0.554,-1.845,195.618,217.957,7.812
0.005,0.578,-2.146,213.501,174.805,-1.648
0.069,0.502,-2.188,163.940,89.722,-13.672
0.344,0.250,-1.900,96.863,53.589,-12.939
0.440,0.146,-1.568,18.555,23.804,-9.033
0.469,0.092,-1.176,-92.712,-10.193,5.310
0.538,0.064,-0.522,-97.046,-13.550,13.306
0.605,0.045,-0.360,-26.306,-5.310,18.433
0.705,0.005,-0.403,11.719,1.221,16.541
0.717,0.006,-0.496,35.400,11.658,16.174
0.696,0.082,-0.645,30.151,15.503,17.944
0.681,0.140,-0.700,18.188,18.738,17.883
0.638,0.213,-0.737,18.127,17.517,14.832
0.632,0.227,-0.724,20.142,15.442,11.780
0.637,0.237,-0.711,20.874,12.817,8.789
0.667,0.263,-0.751,18.188,12.085,7.446
0.669,0.269,-0.782,9.521,6.165,1.404
0.657,0.264,-0.788,4.028,1.160,-2.686
0.651,0.248,-0.757,-3.113,-7.935,-7.446
0.644,0.191,-0.703,-2.625,-9.949,-7.202
0.654,0.175,-0.700,0.000,-10.803,-3.784
0.677,0.164,-0.735,-0.793,-10.864,-3.052
0.667,0.159,-0.754,-2.319,-10.803,-3.601
0.627,0.152,-0.762,-8.240,-12.085,-3.662
0.620,0.152,-0.757,-12.634,-13.489,-0.916
0.627,0.159,-0.748,-19.409,-14.221,6.775
0.646,0.178,-0.716,-19.958,-13.733,9.094
0.647,0.186,-0.711,-13.672,-12.207,10.315
0.637,0.203,-0.738,-10.193,-12.024,9.521
0.634,0.204,-0.760,-6.958,-15.015,8.057
0.627,0.195,-0.797,-8.850,-17.395,7.935
0.625,0.194,-0.809,-16.785,-22.278,7.507
0.622,0.187,-0.809,-19.287,-25.696,6.958
0.625,0.184,-0.797,-25.391,-35.095,8.301
0.625,0.194,-0.775,-28.687,-38.757,10.132
0.629,0.213,-0.774,-32.227,-40.771,11.597
0.644,0.232,-0.777,-44.495,-42.542,13.062
0.698,0.255,-0.742,-53.345,-45.166,12.939
0.719,0.256,-0.702,-63.049,-51.575,8.728
0.743,0.225,-0.637,-59.937,-53.406,5.249
0.744,0.201,-0.631,-43.701,-52.673,-2.686
0.715,0.147,-0.685,-34.607,-49.683,-5.920
0.695,0.122,-0.733,-23.499,-45.837,-6.104
0.683,0.112,-0.826,-21.423,-45.654,-4.639
0.689,0.115,-0.850,-23.499,-50.659,-2.502
0.712,0.115,-0.851,-26.184,-56.274,-3.296
0.711,0.105,-0.845,-26.855,-62.683,-5.737
0.686,0.067,-0.825,-25.085,-80.322,-10.315
0.669,0.052,-0.810,-26.794,-90.271,-10.803
0.656,0.038,-0.793,-34.180,-103.882,-7.935
0.644,0.008,-0.758,-36.804,-108.459,-4.211
0.648,0.001,-0.741,-34.607,-116.760,8.118
0.689,0.033,-0.725,-32.776,-119.629,13.123
0.702,0.051,-0.711,-28.992,-124.756,15.625
0.717,0.081,-0.655,-27.527,-129.333,15.320
0.730,0.099,-0.621,-25.024,-137.268,10.803
0.750,0.105,-0.559,-20.813,-142.151,6.653
0.748,0.085,-0.535,-9.399,-158.081,0.366
0.714,0.032,-0.489,-5.676,-167.358,0.854
0.692,0.022,-0.462,-3.906,-175.354,4.272
0.681,0.037,-0.425,-3.113,-184.998,17.090
0.713,0.118,-0.355,-4.150,-186.340,21.973
0.741,0.160,-0.342,-14.465,-184.570,16.541
0.718,0.158,-0.288,-16.724,-187.439,9.827
0.672,0.137,-0.234,-8.240,-214.722,-2.441
0.571,0.114,-0.100,-4.761,-229.797,-5.310
0.540,0.118,-0.007,-4.333,-252.258,-6.836
0.541,0.162,0.249,-0.916,-263.062,-9.033
0.571,0.188,0.411,14.221,-289.124,-21.912
0.548,0.187,0.705,17.639,-307.190,-34.485
0.463,0.154,0.791,8.423,-324.158,-48.035
0.359,0.117,0.828,-68.787,-318.909,-55.237
0.206,0.089,0.836,-129.883,-291.077,-41.199
0.228,0.123,0.873,-212.463,-215.576,-0.488
0.380,0.209,1.015,-196.106,-202.942,13.000
0.406,0.203,1.007,-78.247,-237.854,6.836
0.303,0.122,0.840,-30.945,-253.906,-4.639
0.222,0.096,0.770,-41.748,-237.915,-6.653
0.154,0.166,0.870,-77.209,-217.102,3.662
0.177,0.244,1.048,-95.398,-204.712,13.550
0.205,0.330,1.340,-70.374,-212.158,6.714
0.183,0.321,1.379,-42.114,-213.989,-2.869
0.154,0.307,1.357,-28.198,-180.359,-9.705
0.183,0.293,1.261,-36.804,-156.982,-6.409
0.211,0.292,1.226,-29.358,-142.395,-4.883
0.179,0.260,1.138,-11.414,-150.146,-8.606
0.142,0.225,1.085,-5.859,-154.541,-11.780
0.101,0.210,1.074,-25.024,-141.846,-9.399
0.099,0.234,1.112,-52.307,-107.666,-3.235
0.093,0.274,1.177,-46.936,-96.497,-1.404
0.087,0.287,1.211,-36.804,-89.722,-0.305
0.083,0.286,1.245,-20.325,-76.782,0.305
0.083,0.276,1.225,-16.052,-67.871,1.099
0.089,0.276,1.199,-17.883,-45.959,5.493
0.107,0.310,1.156,-19.348,-34.851,7.385
0.107,0.326,1.131,-14.160,-21.423,7.874
0.098,0.325,1.079,-10.071,-19.226,6.836
0.089,0.313,1.072,-1.160,-17.639,3.967
0.083,0.288,1.045,3.540,-16.541,4.272
0.087,0.284,1.015,0.488,-14.343,6.470

-0.468,0.034,-2.771,306.580,255.920,-53.772
-0.360,-0.024,-3.223,339.111,59.570,-40.894
-0.005,-0.270,-3.019,214.905,-6.531,-25.085
0.101,-0.326,-2.258,-101.868,-34.180,21.545
0.284,-0.152,-0.548,-162.537,-30.457,48.218
0.505,-0.043,-0.092,-80.505,-11.475,84.045
0.947,0.069,0.079,-13.489,-1.587,78.857
0.999,0.075,-0.013,71.045,17.395,36.072
0.814,0.046,-0.434,92.163,26.611,16.479
0.703,0.019,-0.718,100.525,34.790,-2.502
0.554,-0.017,-1.093,83.374,31.433,-2.258
0.521,-0.013,-1.123,55.847,26.611,2.380
0.511,0.004,-1.084,9.277,17.822,15.930
0.552,0.040,-0.983,2.258,11.841,17.517
0.591,0.035,-0.932,1.770,-4.639,10.681
0.648,0.022,-0.782,-1.343,-11.902,6.348
0.661,0.022,-0.706,-6.653,-17.212,1.526
0.687,0.030,-0.611,-4.150,-15.015,1.526
0.713,0.036,-0.615,8.423,-7.874,2.502
0.736,0.043,-0.673,11.658,-6.409,1.831
0.721,0.038,-0.698,10.986,-6.531,0.000
0.698,0.053,-0.743,9.583,-6.531,-0.793
0.685,0.065,-0.765,8.179,-6.287,-2.075
0.668,0.074,-0.778,6.775,-6.409,-4.150
0.646,0.078,-0.795,5.554,-6.714,-4.089
0.638,0.072,-0.803,1.953,-7.874,-2.197
0.630,0.057,-0.809,0.244,-9.033,-0.427
0.634,0.049,-0.810,-4.395,-11.902,1.831
0.653,0.026,-0.791,-5.920,-13.611,2.380
0.662,0.024,-0.773,-10.254,-17.395,3.662
0.677,0.019,-0.714,-13.062,-17.944,4.028
0.673,0.014,-0.689,-12.268,-14.771,6.287
0.676,0.016,-0.700,-8.789,-12.878,7.935
0.685,0.020,-0.721,-4.761,-10.742,9.216
0.672,0.027,-0.775,-4.028,-11.047,7.935
0.647,0.029,-0.811,-3.235,-12.817,6.287
0.622,0.029,-0.854,-1.282,-20.020,4.578
0.580,0.021,-0.944,-0.305,-25.818,4.578
0.565,0.017,-0.981,2.014,-38.940,5.676
0.541,0.004,-1.029,1.648,-45.166,6.653
0.530,0.002,-1.038,-0.305,-59.509,9.155
0.526,0.010,-1.044,-2.930,-67.688,10.254
0.527,0.013,-1.035,-13.000,-82.581,13.428
0.538,0.032,-1.005,-19.043,-89.783,16.113
0.555,0.059,-0.982,-28.137,-107.727,18.555
0.585,0.091,-0.943,-30.518,-116.943,15.137
0.587,0.086,-0.925,-32.043,-126.953,10.193
0.580,0.074,-0.902,-33.081,-151.001,3.296
0.547,0.047,-0.831,-32.471,-162.842,3.540
0.531,0.041,-0.780,-27.649,-181.458,11.536
0.516,0.028,-0.691,-20.691,-188.782,18.494
0.534,0.025,-0.667,-9.338,-202.881,37.231
0.643,0.089,-0.644,-16.357,-205.322,42.480
0.709,0.129,-0.630,-51.514,-199.158,32.471
0.742,0.163,-0.525,-61.584,-201.355,25.024
0.723,0.164,-0.451,-60.486,-213.135,16.785
0.647,0.134,-0.320,-37.231,-247.253,4.761
0.608,0.105,-0.265,-23.254,-260.010,5.188
0.580,0.075,-0.212,-4.211,-275.452,18.066
0.582,0.063,-0.072,0.244,-279.358,26.062
0.605,0.085,-0.004,-4.822,-277.405,26.855
0.620,0.123,0.109,-15.137,-273.499,18.311
0.594,0.130,0.183,-36.987,-278.259,-2.563
0.476,0.148,0.401,-40.466,-289.368,-8.362
0.402,0.147,0.511,-37.109,-321.594,-7.935
0.259,0.130,0.678,-41.443,-328.369,-4.639
0.217,0.139,0.754,-52.124,-320.557,1.953
0.198,0.240,0.949,-76.538,-281.250,19.836
0.199,0.294,1.044,-75.195,-271.484,20.630
0.184,0.312,1.121,-37.903,-296.570,-1.038
0.082,0.228,1.257,-23.315,-306.335,-16.785
0.042,0.181,1.314,-61.951,-261.047,-34.302
0.014,0.196,1.348,-107.971,-219.910,-27.039
0.019,0.240,1.335,-144.043,-159.241,-5.615
0.060,0.276,1.383,-123.230,-155.212,-1.892
0.079,0.238,1.407,-66.772,-160.461,-7.324
0.088,0.162,1.401,-62.134,-147.461,-8.301
0.090,0.179,1.389,-77.698,-122.986,-4.456
0.139,0.309,1.358,-126.099,-69.458,12.146
0.179,0.379,1.339,-130.676,-55.603,18.982
0.195,0.428,1.300,-82.581,-57.251,22.827
0.188,0.438,1.151,-51.331,-61.707,22.278
0.188,0.412,1.067,-20.447,-57.251,22.217
0.214,0.382,0.950,-19.958,-51.025,23.499
0.221,0.404,0.919,-23.437,-41.870,26.917
0.252,0.476,0.887,-25.391,-40.649,27.039
0.265,0.507,0.903,-28.503,-42.175,18.250
0.248,0.534,0.954,-26.062,-41.992,11.353
0.227,0.523,0.967,-21.484,-40.649,5.005
0.203,0.499,0.971,-9.888,-36.194,-2.380
0.155,0.438,0.982,-5.310,-33.447,-2.991
0.146,0.414,0.994,-5.676,-24.658,0.000
0.142,0.412,0.990,-10.254,-18.738,1.892
0.147,0.420,0.980,-19.592,-11.719,4.028
0.157,0.432,0.960,-20.142,-9.949,3.418
0.153,0.430,0.934,-9.644,-10.254,1.892
0.156,0.409,0.856,-3.723,-12.146,2.197
0.155,0.409,0.841,-2.380,-13.428,2.319
0.150,0.414,0.847,-10.315,-12.024,-0.244
0.136,0.417,0.874,-12.878,-11.230,-1.831
0.129,0.414,0.888,-13.184,-12.390,-3.540
0.115,0.403,0.907,-13.123,-12.390,-3.296
0.111,0.396,0.907,-8.301,-10.559,-1.282
0.106,0.384,0.875,-4.822,-9.766,0.061
0.107,0.387,0.862,-8.728,-8.240,2.014
0.111,0.411,0.873,-13.306,-7.690,2.197
0.113,0.417,0.876,-14.893,-7.202,1.953
0.114,0.413,0.863,-10.742,-6.775,0.916
0.112,0.412,0.859,-9.705,-7.080,0.916
0.114,0.417,0.862,-10.559,-7.568,2.686
0.112,0.428,0.861,-10.010,-7.690,3.479
0.108,0.431,0.861,-8.850,-8.301,3.967
0.097,0.432,0.869,-8.606,-8.362,3.906
0.096,0.432,0.875,-7.751,-8.606,4.150
0.100,0.431,0.881,-6.165,-8.545,4.211
0.097,0.427,0.868,-4.272,-8.606,4.456
0.097,0.428,0.858,-4.211,-10.315,6.531
0.098,0.439,0.871,-6.287,-10.559,7.507
0.098,0.452,0.884,-7.935,-7.507,7.751

-0.142,-0.005,-2.566,254.028,152.710,37.476
0.048,0.072,-2.706,204.468,33.020,13.977
0.255,-0.096,-2.182,121.704,-3.601,-2.808
0.247,-0.187,-1.558,-37.292,-44.250,10.742
0.504,-0.141,-0.443,-69.885,-39.734,39.124
0.761,-0.047,-0.171,-42.969,-10.620,69.397
1.055,0.071,-0.026,-12.329,0.732,57.373
1.035,0.073,-0.056,19.226,9.644,37.048
0.973,0.058,-0.156,76.111,27.222,4.333
0.801,0.003,-0.587,91.858,34.790,-4.761
0.693,-0.016,-0.848,81.055,40.588,-9.766
0.510,0.015,-1.127,61.401,37.781,-5.615
0.469,0.049,-1.130,28.259,23.987,8.179
0.504,0.091,-1.032,20.630,15.259,12.817
0.558,0.096,-0.937,10.742,-1.160,13.000
0.648,0.090,-0.743,8.484,-6.897,10.986
0.688,0.086,-0.699,7.996,-10.742,8.972
0.717,0.084,-0.667,2.014,-12.085,5.005
0.730,0.094,-0.578,-1.892,-10.620,4.395
0.734,0.115,-0.567,3.174,-6.897,3.357
0.733,0.138,-0.643,11.475,-5.249,1.343
0.729,0.132,-0.686,18.555,-4.517,-1.221
0.716,0.135,-0.749,15.808,-4.883,-1.770
0.713,0.140,-0.773,5.371,-5.737,-3.784
0.693,0.143,-0.773,0.183,-6.836,-5.127
0.683,0.137,-0.762,-3.357,-7.935,-5.798
0.683,0.112,-0.753,-6.531,-8.789,-5.188
0.690,0.098,-0.749,-7.935,-9.155,-4.089
0.700,0.090,-0.733,-11.536,-9.949,-2.441
0.700,0.075,-0.699,-12.146,-9.888,-2.502
0.692,0.066,-0.701,-7.263,-10.132,-2.014
0.670,0.050,-0.740,-4.395,-11.047,-0.610
0.666,0.047,-0.763,-4.028,-13.794,2.319
0.657,0.052,-0.787,-6.165,-15.259,3.357
0.649,0.052,-0.793,-10.803,-19.653,5.432
0.636,0.059,-0.806,-12.390,-22.339,6.348
0.630,0.061,-0.811,-12.878,-27.893,8.423
0.625,0.054,-0.842,-11.230,-31.555,9.888
0.625,0.051,-0.863,-9.277,-35.645,11.047
0.625,0.049,-0.882,-5.920,-45.105,11.597
0.621,0.042,-0.907,-6.104,-50.293,11.353
0.615,0.038,-0.912,-11.841,-60.059,12.146
0.607,0.034,-0.907,-17.090,-64.636,13.184
0.612,0.039,-0.890,-28.564,-74.829,13.977
0.625,0.052,-0.830,-31.799,-80.688,13.916
0.637,0.057,-0.803,-30.212,-92.041,14.648
0.672,0.064,-0.756,-28.198,-97.229,15.137
0.687,0.072,-0.730,-25.024,-106.750,14.465
0.712,0.082,-0.682,-23.682,-110.901,12.878
0.722,0.083,-0.656,-22.949,-114.868,11.292
0.736,0.088,-0.620,-21.545,-123.596,10.986
0.781,0.103,-0.518,-18.127,-127.747,10.925
0.794,0.100,-0.480,-7.080,-132.629,7.568
0.789,0.069,-0.458,-3.662,-135.071,8.118
0.784,0.052,-0.452,-9.399,-134.399,18.738
0.829,0.079,-0.388,-16.663,-132.019,22.644
0.873,0.111,-0.331,-21.851,-132.446,18.738
0.903,0.133,-0.226,-15.686,-137.573,9.949
0.903,0.130,-0.191,1.526,-149.719,-9.460
0.918,0.105,-0.161,3.601,-150.696,-20.325
0.902,0.073,-0.161,-1.526,-148.193,-30.823
0.870,0.030,-0.167,-32.166,-142.517,-36.499
0.806,-0.009,-0.178,-54.504,-139.221,-29.419
0.792,0.010,-0.169,-94.788,-127.930,-4.700
0.820,0.092,-0.100,-101.685,-124.756,6.836
0.838,0.132,-0.056,-72.205,-137.390,16.113
0.836,0.139,-0.002,-42.908,-150.879,14.404
0.812,0.114,0.014,5.066,-178.040,11.780
0.760,0.072,0.041,10.803,-184.082,13.489
0.746,0.069,0.062,3.174,-181.946,15.991
0.719,0.073,0.153,-28.259,-168.579,21.179
0.702,0.083,0.219,-37.048,-169.006,26.978
0.678,0.094,0.288,-25.635,-186.890,45.715
0.637,0.127,0.416,-7.385,-194.458,50.415
0.631,0.135,0.472,20.508,-207.886,45.105
0.586,0.140,0.502,14.587,-215.515,40.588
0.548,0.148,0.490,-39.734,-205.200,36.377
0.476,0.219,0.537,-74.524,-193.787,39.368
0.467,0.284,0.629,-94.971,-185.669,44.861
0.477,0.339,0.745,-56.641,-196.655,45.654
0.478,0.347,0.924,-11.658,-214.783,35.217
0.443,0.319,0.966,41.565,-243.530,3.662
0.326,0.282,0.996,26.001,-239.319,-9.888
0.279,0.281,1.006,-54.687,-193.909,-18.311
0.242,0.287,1.068,-80.078,-170.898,-15.259
0.236,0.253,1.104,-35.278,-166.016,-13.428
0.194,0.109,1.138,17.822,-182.373,-16.968
0.152,0.041,1.108,63.721,-197.998,-19.836
0.124,0.014,1.065,56.213,-185.059,-10.864
0.150,0.110,1.056,8.850,-156.311,-2.014
0.194,0.194,1.101,-62.012,-106.262,7.141
0.252,0.299,1.182,-60.059,-97.839,5.554
0.262,0.315,1.190,-21.973,-102.295,-0.305
0.253,0.322,1.213,-5.676,-102.966,-3.906
0.236,0.317,1.222,9.338,-86.670,-9.949
0.195,0.264,1.178,9.949,-74.585,-9.949
0.190,0.224,1.132,4.272,-62.317,-0.305
0.217,0.201,1.083,-0.977,-60.303,4.822
0.220,0.212,1.086,-7.263,-57.251,6.775
0.214,0.234,1.100,-20.508,-45.593,4.639
0.206,0.287,1.124,-23.621,-38.818,2.197
0.195,0.295,1.126,-18.738,-31.677,-5.310
0.161,0.259,1.094,-13.611,-32.043,-7.874
0.145,0.232,1.070,-11.719,-32.471,-8.850
0.117,0.207,1.042,-16.418,-29.846,-7.446
0.113,0.217,1.050,-25.146,-21.484,-2.014
0.107,0.243,1.080,-23.193,-17.517,0.000
0.101,0.246,1.069,-16.907,-14.404,1.099
0.096,0.236,1.040,-5.737,-11.169,2.441
0.094,0.204,0.973,-4.639,-10.986,3.906
0.096,0.201,0.958,-9.094,-10.559,8.240
0.093,0.218,0.947,-11.414,-8.789,9.705
0.089,0.225,0.932,-13.123,-5.676,12.390
0.096,0.237,0.912,-13.306,-5.737,13.367
0.098,0.247,0.911,-14.587,-6.592,11.292
0.095,0.266,0.931,-16.724,-7.324,8.545
0.087,0.273,0.947,-18.372,-7.935,5.615
0.082,0.273,0.955,-15.137,-9.155,2.869
0.072,0.261,0.953,-11.414,-9.583,2.563

-0.329,0.266,-2.725,351.318,233.704,-23.193
-0.229,0.210,-3.069,314.270,99.548,-8.362
0.072,0.056,-2.761,196.533,42.480,-0.732
0.186,0.021,-2.056,-55.725,-22.949,20.630
0.426,0.058,-0.539,-102.173,-32.410,33.752
0.623,0.055,-0.122,-37.842,-19.775,46.143
0.936,0.020,0.090,13.184,-8.118,40.039
0.947,0.010,-0.024,53.833,5.188,28.442
0.870,-0.004,-0.286,101.624,31.921,6.531
0.657,0.006,-0.894,103.088,38.513,2.930
0.588,0.057,-1.062,59.021,31.250,7.935
0.518,0.167,-1.080,29.602,22.705,10.986
0.515,0.202,-0.995,-1.770,8.484,15.015
0.605,0.213,-0.807,-4.028,2.502,13.000
0.654,0.193,-0.731,-2.319,-2.563,7.935
0.689,0.165,-0.674,3.052,-6.775,-1.221
0.705,0.115,-0.596,5.371,-7.019,-2.136
0.714,0.108,-0.588,9.399,-2.502,2.197
0.760,0.139,-0.640,9.888,1.160,3.662
0.766,0.167,-0.669,9.827,2.319,-1.282
0.729,0.204,-0.710,10.071,0.000,-5.371
0.702,0.213,-0.735,10.376,-4.578,-10.498
0.671,0.198,-0.774,8.362,-6.531,-11.169
0.670,0.183,-0.763,3.479,-8.606,-10.559
0.667,0.169,-0.736,-8.362,-10.681,-6.165
0.661,0.158,-0.713,-9.033,-10.559,-3.174
0.664,0.154,-0.729,-3.967,-11.414,0.000
0.678,0.141,-0.756,-4.211,-12.573,0.061
