aX,aY,aZ,gX,gY,gZ
-0.543,0.572,-1.414,44.739,132.751,-305.481
-0.646,0.370,-1.560,87.769,88.135,-338.257
-0.766,0.085,-1.792,129.456,34.363,-329.773
-0.749,0.070,-1.875,172.546,-125.244,-294.495
-0.624,0.083,-1.860,159.363,-207.703,-284.058
-0.559,0.056,-1.757,97.534,-316.406,-268.433
-0.396,-0.002,-1.508,66.040,-343.384,-257.690
-0.300,-0.075,-1.357,19.348,-371.643,-228.088
0.000,-0.245,-1.039,7.751,-370.483,-208.191
0.101,-0.248,-0.928,-15.381,-333.313,-161.194
0.127,-0.224,-0.831,-45.044,-312.195,-141.235
0.134,-0.293,-0.795,-82.642,-298.401,-124.146
0.243,-0.400,-0.710,-134.949,-298.950,-93.079
0.259,-0.414,-0.616,-140.015,-305.237,-80.200
0.298,-0.424,-0.523,-132.263,-304.443,-62.195
0.330,-0.495,-0.375,-125.793,-299.561,-51.147
0.355,-0.517,-0.319,-99.121,-282.959,-21.240
0.387,-0.439,-0.274,-89.722,-273.499,-9.277
0.330,-0.384,-0.247,-113.281,-259.827,10.315
0.383,-0.483,-0.103,-140.747,-261.841,24.048
0.387,-0.622,0.056,-152.283,-260.010,58.411
0.276,-0.728,0.405,-127.625,-245.728,80.261
0.296,-0.661,0.522,-77.698,-217.468,128.784
0.380,-0.388,0.629,-80.017,-205.627,154.236
0.341,-0.280,0.708,-135.742,-163.147,203.796
0.525,-0.189,0.913,-154.419,-126.465,226.562
0.489,-0.035,0.976,-152.283,-88.989,247.009
0.494,0.217,1.031,-127.380,-4.517,274.353
0.677,0.804,0.987,-123.840,54.504,263.306
0.680,1.026,0.812,-150.269,190.674,190.063
0.597,1.204,0.432,-172.302,253.540,160.950
0.573,1.175,0.294,-173.462,362.915,141.602
0.431,1.050,0.056,-132.141,403.381,122.070
0.303,1.002,-0.106,6.470,422.241,30.884
0.246,0.926,-0.421,72.327,408.264,-23.193
0.283,0.942,-0.527,131.714,390.198,-72.510
0.350,1.003,-0.619,212.036,363.159,-161.865
0.286,1.153,-0.815,206.787,351.379,-199.158
0.257,1.082,-0.884,102.661,320.923,-226.929
0.216,0.546,-0.984,47.485,300.537,-210.693
0.201,0.262,-1.040,0.305,228.027,-123.535
0.268,-0.033,-1.095,-4.395,178.772,-80.505
0.308,-0.099,-1.060,-2.625,105.469,-34.668
0.399,-0.091,-1.003,-0.916,95.032,-24.841
0.423,-0.084,-1.019,-9.277,99.487,-14.771
0.414,-0.169,-1.132,-61.218,129.272,17.639
0.408,-0.243,-1.179,-97.412,145.142,39.978
0.384,-0.317,-1.182,-151.306,170.715,81.055
0.301,-0.376,-1.102,-155.762,177.307,97.351
0.260,-0.350,-1.047,-110.596,174.866,112.854
0.125,-0.131,-1.037,-70.618,166.748,107.910
0.053,0.035,-1.105,-10.193,121.765,68.176
-0.127,0.305,-1.268,-1.343,95.581,48.828
-0.187,0.404,-1.356,-26.123,72.815,44.556
-0.194,0.417,-1.394,-50.720,71.289,49.377
-0.169,0.350,-1.346,-73.303,69.580,46.997
-0.141,0.270,-1.296,-59.265,64.575,36.194
-0.133,0.254,-1.293,-31.616,53.833,20.935
-0.129,0.258,-1.296,32.349,24.048,-0.244
-0.106,0.397,-1.312,47.302,11.353,-0.549
-0.081,0.465,-1.292,12.817,-6.836,2.930
-0.017,0.372,-1.178,-20.203,-10.803,2.014
0.007,0.255,-1.131,-48.035,-7.690,-1.587
0.022,0.097,-1.088,-36.621,-6.165,-2.563
0.030,0.087,-1.073,2.686,-9.399,-1.953
0.050,0.183,-1.052,15.503,-11.353,-1.709
0.054,0.233,-1.043,8.911,-13.184,-2.441
0.073,0.234,-1.010,-6.348,-12.573,-1.709
0.084,0.195,-0.984,-31.799,-3.967,0.427
0.080,0.140,-0.983,-34.851,1.038,1.221
0.074,0.132,-0.991,-33.142,3.052,2.380
0.069,0.125,-0.972,-22.705,3.845,3.479
0.072,0.136,-0.960,-15.930,5.371,2.380
0.075,0.139,-0.973,-10.437,5.676,-0.244
0.086,0.120,-0.974,-12.085,6.226,-0.977
0.078,0.110,-0.965,-16.724,10.010,-1.343
0.063,0.121,-0.961,-19.653,10.132,-0.977
0.067,0.125,-0.957,-24.597,7.935,-2.014
0.087,0.104,-0.944,-24.658,8.850,-3.784
0.089,0.091,-0.949,-23.315,11.353,-5.676
0.057,0.069,-0.979,-19.104,15.015,-7.751
0.045,0.069,-0.990,-18.005,14.771,-6.897
0.041,0.068,-0.991,-21.790,13.062,-3.418
0.043,0.052,-0.983,-24.170,13.367,-2.441
0.034,0.039,-0.989,-21.484,16.785,-4.028
0.004,0.018,-1.004,-16.296,17.517,-4.822
-0.001,0.020,-1.003,-4.578,15.930,-3.479
0.003,0.053,-1.000,-0.854,14.771,-2.197
-0.001,0.070,-1.000,-3.601,10.803,0.305
-0.007,0.074,-0.988,-8.362,7.996,0.793
-0.005,0.066,-0.984,-12.817,3.601,-1.038
0.008,0.057,-0.979,-10.315,4.517,-1.770
0.007,0.063,-0.981,-5.920,8.118,-2.197
-0.015,0.083,-0.996,-0.488,15.686,-2.563
-0.022,0.092,-1.006,-2.075,15.991,-2.014
-0.021,0.092,-1.013,-10.620,10.986,-2.502
-0.014,0.059,-1.006,-13.123,8.850,-3.906
-0.013,0.049,-1.005,-11.108,9.399,-4.883
-0.014,0.051,-1.015,-10.071,10.803,-4.700
-0.018,0.048,-1.015,-10.437,12.146,-4.700
-0.025,0.032,-1.004,-9.583,11.841,-4.333
-0.022,0.028,-1.002,-5.676,10.620,-3.845
-0.023,0.023,-1.014,-4.578,9.827,-4.272
-0.026,0.017,-1.023,-5.188,7.751,-4.517
-0.028,-0.003,-1.026,-5.859,7.324,-3.967
-0.030,-0.008,-1.025,-5.859,7.385,-3.174
-0.032,0.000,-1.030,-5.371,6.287,-1.221
-0.032,0.004,-1.030,-5.188,4.578,-0.366
-0.034,0.006,-1.028,-4.028,0.793,0.977
-0.039,0.009,-1.025,-3.235,-0.610,1.282
-0.040,0.013,-1.026,-1.038,-2.563,0.793
-0.031,0.020,-1.027,-0.061,-2.991,0.488
-0.028,0.021,-1.026,1.221,-2.441,0.549
-0.033,0.025,-1.017,1.282,-2.319,0.977
-0.035,0.026,-1.011,1.221,-2.502,1.099
-0.029,0.030,-1.008,1.465,-3.052,0.671
-0.021,0.032,-1.007,1.404,-3.784,-0.061
-0.014,0.025,-1.006,0.366,-1.953,-0.305
-0.021,0.013,-1.008,-1.099,0.854,-0.244

0.643,0.606,1.506,-228.027,29.663,253.113
0.600,0.833,1.439,-238.464,189.148,220.825
0.647,1.271,1.149,-225.281,261.292,204.041
0.668,1.353,0.950,-178.589,371.277,158.691
0.576,1.370,0.468,-155.884,402.222,109.802
0.479,1.315,0.203,-126.099,410.034,44.800
0.432,1.112,-0.241,-38.208,365.112,-81.543
0.502,0.941,-0.443,8.606,328.430,-129.272
0.614,0.786,-0.654,107.300,260.498,-209.717
0.828,0.609,-0.937,147.217,235.596,-247.314
0.782,0.533,-0.981,170.349,204.590,-267.883
0.562,0.235,-1.127,158.447,182.739,-222.778
0.601,0.048,-1.137,83.252,82.520,-104.248
0.746,-0.205,-0.895,59.937,22.705,-86.060
0.847,-0.224,-0.836,81.543,-39.368,-104.187
0.984,-0.198,-0.851,90.210,-33.630,-102.112
0.936,-0.235,-0.801,82.336,-12.817,-86.975
0.837,-0.290,-0.724,50.110,23.865,-49.377
0.670,-0.289,-0.597,35.645,22.583,-32.715
0.678,-0.246,-0.546,-1.221,-8.972,-1.648
0.766,-0.252,-0.418,-16.907,-23.071,8.118
0.769,-0.276,-0.329,-20.386,-31.677,19.531
0.749,-0.279,-0.171,-12.268,-27.283,27.344
0.723,-0.233,-0.140,-0.977,-9.460,50.903
0.684,-0.104,-0.111,-10.803,-0.305,65.186
0.705,-0.061,-0.108,-56.396,21.973,86.182
0.754,-0.066,-0.133,-83.069,35.034,90.637
0.752,-0.116,-0.138,-119.324,57.251,100.769
0.680,-0.198,-0.124,-122.620,64.758,109.741
0.667,-0.185,-0.115,-117.920,68.848,120.239
0.687,-0.154,-0.101,-91.797,71.655,136.353
0.742,-0.039,-0.141,-70.923,80.444,140.991
0.734,0.063,-0.238,-44.128,122.375,143.372
0.615,0.243,-0.435,-51.392,143.005,143.799
0.555,0.281,-0.481,-90.393,164.673,153.687
0.501,0.358,-0.538,-108.887,168.335,163.269
0.524,0.404,-0.590,-136.047,167.358,170.654
0.526,0.451,-0.684,-134.399,163.940,158.203
0.475,0.490,-0.720,-94.116,158.630,119.263
0.349,0.643,-0.822,-74.280,159.851,105.041
0.329,0.729,-0.899,-69.153,162.720,96.375
0.337,0.756,-0.966,-112.183,167.419,85.449
0.368,0.598,-1.011,-138.855,171.326,78.064
0.343,0.489,-1.023,-140.198,183.838,55.786
0.223,0.339,-1.066,-112.793,186.218,40.466
0.163,0.313,-1.106,-39.978,178.040,12.024
0.074,0.364,-1.233,-13.123,171.082,4.272
0.039,0.412,-1.289,-7.324,156.921,2.686
-0.024,0.494,-1.331,-28.381,148.193,5.615
-0.022,0.479,-1.316,-60.181,137.207,9.094
0.001,0.404,-1.280,-118.225,112.427,10.376
0.014,0.198,-1.209,-127.808,101.379,6.226
-0.002,0.114,-1.203,-104.431,75.867,-8.423
-0.033,0.019,-1.200,-79.712,60.669,-14.160
-0.036,0.023,-1.182,-31.860,37.659,-16.907
-0.017,0.082,-1.138,-18.921,34.485,-16.846
-0.016,0.100,-1.134,-18.555,41.321,-17.029
-0.038,0.095,-1.121,-25.024,45.837,-15.808
-0.047,0.079,-1.100,-34.729,45.715,-13.733
-0.062,0.034,-1.051,-33.691,41.138,-13.794
-0.063,0.021,-1.041,-21.057,26.672,-10.315
-0.035,0.030,-1.055,-14.832,20.630,-7.263
-0.031,0.036,-1.062,-12.268,18.127,-5.310
-0.041,0.035,-1.062,-14.404,22.156,-3.418
-0.070,0.031,-1.056,-15.320,24.475,-2.136
-0.079,0.037,-1.049,-12.146,23.071,0.488
-0.091,0.070,-1.038,-8.545,19.531,1.526
-0.082,0.091,-1.040,-5.188,8.362,1.831
-0.047,0.094,-1.033,-7.141,4.333,0.549
-0.043,0.073,-1.026,-10.681,5.859,-3.174
-0.053,0.034,-1.011,-8.911,8.606,-4.456
-0.055,0.034,-1.010,0.183,10.559,-5.737
-0.063,0.074,-1.009,4.639,9.705,-6.653
-0.073,0.098,-1.014,7.568,8.057,-8.179
-0.091,0.110,-1.037,6.165,0.122,-12.695
-0.086,0.094,-1.042,2.869,-5.066,-13.611
-0.077,0.073,-1.039,-2.014,-9.338,-10.010
-0.057,0.043,-1.022,-2.380,-7.935,-6.897
-0.048,0.039,-1.016,-0.488,-2.441,-3.723
-0.044,0.045,-1.010,1.160,0.183,-3.662
-0.053,0.052,-1.010,4.761,3.601,-4.211
-0.078,0.073,-1.025,5.371,2.991,-4.456
-0.083,0.076,-1.029,3.479,-2.502,-4.761
-0.078,0.067,-1.014,2.319,-4.578,-4.028
-0.068,0.061,-1.004,1.038,-3.662,-2.014
-0.055,0.047,-0.996,1.221,-1.587,-1.953
-0.062,0.047,-0.999,4.028,1.404,-3.418
-0.078,0.059,-1.010,6.042,0.610,-5.066
-0.082,0.062,-1.011,8.301,-1.831,-6.897
-0.080,0.066,-1.013,12.695,-7.629,-8.179
-0.067,0.085,-1.018,13.123,-9.338,-7.812
-0.061,0.091,-1.017,7.080,-10.437,-7.141
-0.048,0.081,-1.007,3.235,-9.766,-6.714
-0.042,0.073,-1.000,0.366,-5.737,-6.042
-0.051,0.066,-1.000,1.587,-3.357,-6.042
-0.065,0.074,-1.011,3.967,-2.808,-5.066
-0.073,0.094,-1.027,2.991,-5.432,-4.395
-0.068,0.095,-1.025,-1.038,-12.756,-5.249
-0.048,0.082,-1.007,-1.831,-14.893,-6.226
-0.031,0.077,-1.004,-1.465,-13.184,-6.836
-0.012,0.063,-1.003,-0.610,-9.766,-6.653
-0.016,0.054,-1.008,0.427,-5.676,-6.287
-0.021,0.041,-1.019,0.488,-0.916,-3.296
-0.019,0.036,-1.017,0.122,-1.038,-1.221
-0.016,0.038,-1.012,0.854,-3.540,2.197
-0.014,0.058,-0.998,1.221,-4.517,3.296
-0.016,0.069,-0.994,1.526,-5.432,3.357
-0.015,0.085,-0.993,1.221,-5.371,3.174
-0.014,0.087,-0.992,0.427,-3.296,2.808
-0.019,0.084,-0.989,0.732,-1.465,2.380
-0.021,0.083,-0.990,2.136,0.854,2.075
-0.027,0.094,-0.999,2.197,0.793,2.197
-0.033,0.101,-1.003,0.427,-0.366,1.099
-0.045,0.107,-1.013,-0.549,-1.221,-0.122
-0.051,0.108,-1.017,-0.854,-2.686,-1.831
-0.056,0.102,-1.017,0.610,-6.836,-5.615
-0.050,0.095,-1.014,1.831,-8.179,-6.226
-0.040,0.089,-1.011,3.296,-7.202,-5.188
-0.025,0.073,-1.004,3.418,-5.737,-4.883

0.759,0.994,0.956,-293.152,-25.513,204.529
0.719,1.052,0.930,-287.781,76.843,180.237
0.737,1.280,0.807,-255.554,127.686,167.603
0.796,1.424,0.725,-177.429,215.027,136.841
0.883,1.560,0.509,-147.583,248.901,109.863
0.890,1.543,0.361,-122.559,271.240,68.420
0.860,1.471,0.207,-54.260,279.114,-38.269
0.808,1.297,-0.027,-7.568,273.865,-82.458
0.823,1.225,-0.081,95.825,268.005,-133.301
0.885,1.170,-0.249,148.193,270.691,-153.137
0.859,1.172,-0.397,230.713,272.400,-210.632
0.809,1.167,-0.827,248.291,269.165,-248.535
0.754,1.121,-1.003,234.741,247.437,-330.261
0.584,0.910,-1.239,202.942,227.844,-364.563
0.533,0.678,-1.340,160.461,208.008,-383.850
0.465,0.417,-1.410,78.003,156.921,-378.662
0.256,-0.121,-1.485,56.946,118.652,-360.046
0.219,-0.390,-1.493,51.636,13.855,-291.748
0.187,-0.792,-1.362,53.955,-45.410,-249.451
0.201,-0.902,-1.231,62.866,-140.259,-171.143
0.228,-0.909,-0.954,67.139,-167.541,-139.282
0.247,-0.854,-0.824,57.068,-193.481,-82.886
0.283,-0.749,-0.573,36.743,-197.144,-54.626
0.313,-0.703,-0.433,-33.447,-189.880,7.019
0.243,-0.620,-0.133,-71.472,-181.458,37.415
0.265,-0.578,-0.002,-134.399,-168.152,91.064
0.332,-0.494,0.219,-150.513,-164.490,116.455
0.370,-0.426,0.352,-154.663,-155.029,139.465
0.620,-0.323,0.588,-153.076,-105.164,167.419
0.663,-0.280,0.670,-149.597,-65.002,172.424
0.681,-0.230,0.698,-124.451,33.264,183.105
0.718,-0.089,0.635,-114.868,81.238,191.650
0.721,-0.008,0.587,-112.244,161.377,208.313
0.671,0.161,0.499,-115.112,193.054,211.121
0.639,0.225,0.446,-130.127,243.652,201.904
0.626,0.316,0.264,-136.597,266.785,193.787
0.650,0.356,0.126,-138.489,289.307,185.364
0.649,0.403,-0.159,-132.751,326.782,169.922
0.619,0.422,-0.273,-125.977,344.116,166.931
0.528,0.441,-0.376,-101.990,378.296,165.466
0.351,0.558,-0.671,-91.736,381.531,153.076
0.306,0.611,-0.827,-98.389,350.891,108.215
0.155,0.635,-1.151,-104.980,330.566,85.449
0.062,0.613,-1.321,-107.483,281.677,44.800
-0.033,0.495,-1.473,-99.304,251.221,33.325
-0.014,0.454,-1.460,-64.453,202.454,29.114
0.051,0.433,-1.413,-52.307,190.613,25.818
0.038,0.408,-1.392,-48.767,185.181,18.921
-0.004,0.377,-1.390,-57.556,177.002,5.432
-0.135,0.294,-1.417,-64.270,164.185,-0.061
-0.201,0.238,-1.411,-66.406,117.859,-5.249
-0.220,0.204,-1.384,-58.899,90.393,0.854
-0.203,0.241,-1.341,-34.546,52.429,14.526
-0.201,0.362,-1.282,-27.039,47.485,13.489
-0.208,0.377,-1.279,-30.701,49.072,2.319
-0.215,0.294,-1.244,-36.011,48.645,-1.526
-0.212,0.235,-1.208,-34.546,41.443,-3.723
-0.188,0.189,-1.156,-26.733,35.706,-1.953
-0.174,0.197,-1.127,-18.127,29.724,1.282
-0.153,0.232,-1.090,-7.935,19.836,4.395
-0.143,0.236,-1.080,-6.592,16.846,2.869
-0.133,0.228,-1.066,-6.348,14.221,-1.038
-0.100,0.197,-1.036,-6.714,14.038,-2.319
-0.090,0.184,-1.030,-8.179,12.085,-5.005
-0.086,0.159,-1.036,-9.033,8.606,-6.165
-0.083,0.138,-1.037,-7.690,1.648,-6.104
-0.075,0.120,-1.031,-5.371,0.671,-4.822
-0.072,0.124,-1.022,-2.319,1.038,-2.869
-0.071,0.132,-1.008,-0.671,0.732,-2.747
-0.066,0.140,-1.003,4.211,-2.197,-3.906
-0.043,0.151,-0.985,5.432,-3.540,-4.578
-0.032,0.152,-0.981,5.188,-3.601,-4.883
-0.039,0.151,-0.993,1.526,0.244,-5.005
-0.049,0.143,-1.000,-0.977,1.892,-5.249
-0.057,0.135,-1.010,-2.808,3.113,-3.235
-0.071,0.141,-1.031,-2.136,2.930,-1.221
-0.077,0.152,-1.035,-2.319,-0.366,1.648
-0.080,0.163,-1.024,-2.502,-3.113,1.648
-0.077,0.168,-1.016,0.366,-6.165,0.549
-0.078,0.188,-1.009,1.709,-5.615,0.183
-0.078,0.193,-1.005,-0.244,-4.211,-0.549
-0.080,0.188,-1.000,-2.075,-3.906,-0.671
-0.080,0.181,-1.001,-4.883,-3.174,0.244
-0.079,0.161,-0.997,-5.493,-2.625,0.549
-0.079,0.153,-0.989,-4.883,-2.502,0.671
-0.068,0.155,-0.987,-2.075,-4.333,0.366
-0.065,0.157,-0.986,-0.977,-5.066,-0.610
-0.067,0.156,-0.983,0.061,-4.089,-1.709
-0.068,0.152,-0.979,-0.183,-3.235,-1.221
-0.063,0.150,-0.976,-1.770,-2.258,-0.244
-0.047,0.145,-0.963,-2.686,-2.075,0.366
-0.040,0.145,-0.959,-4.578,-1.160,1.282
-0.041,0.147,-0.960,-5.127,-0.610,1.221
-0.043,0.144,-0.962,-4.700,-1.160,1.709
-0.046,0.143,-0.965,-3.906,-1.038,2.014
-0.046,0.147,-0.965,-1.709,1.587,1.343
-0.052,0.158,-0.966,-0.671,2.930,0.610
-0.054,0.161,-0.964,0.488,4.272,-0.488
-0.056,0.167,-0.964,0.549,5.249,-0.977
-0.057,0.169,-0.970,0.366,6.592,-1.404
-0.060,0.171,-0.977,0.000,8.545,-2.197
-0.066,0.169,-0.984,-0.244,8.728,-2.869
-0.067,0.167,-0.984,0.732,8.850,-5.188
-0.066,0.165,-0.987,2.319,9.094,-6.592
-0.069,0.168,-0.993,4.456,9.033,-8.484
-0.081,0.172,-1.015,3.052,7.996,-7.751
-0.085,0.167,-1.020,-3.601,3.113,-2.808
-0.076,0.159,-1.019,-6.531,0.305,-0.549
-0.068,0.155,-1.015,-8.667,-1.770,0.183
-0.066,0.143,-1.010,-7.446,-0.977,-0.244
-0.069,0.141,-1.010,-5.249,-0.061,-0.488
-0.071,0.144,-1.011,-1.404,-0.549,-0.732
-0.074,0.157,-1.006,-0.549,-1.160,-0.854
-0.074,0.163,-1.004,-0.916,-1.099,-0.916
-0.073,0.164,-1.000,-1.709,-0.793,-1.160
-0.074,0.160,-0.999,-2.197,-1.648,-1.709
-0.070,0.154,-0.994,-1.892,-2.441,-1.892
-0.065,0.152,-0.987,-1.953,-2.197,-1.892
-0.064,0.151,-0.978,-2.502,-1.099,-1.770

-0.219,0.720,-1.840,163.879,150.085,-341.858
-0.333,0.526,-1.771,132.324,115.356,-393.372
-0.264,0.084,-1.866,129.578,92.529,-360.962
-0.096,0.015,-1.850,148.804,-32.166,-203.064
0.033,-0.054,-1.406,154.297,-122.314,-136.230
0.083,-0.093,-1.118,127.869,-246.399,-83.618
0.375,-0.192,-0.599,109.253,-260.010,-75.867
0.458,-0.177,-0.456,88.440,-197.937,-51.880
0.584,-0.092,-0.356,71.899,-140.381,-29.236
0.564,-0.060,-0.366,36.499,-80.505,-4.028
0.518,-0.081,-0.354,-86.853,20.569,39.490
0.446,-0.264,-0.301,-148.499,53.955,59.326
0.450,-0.381,-0.264,-207.214,90.576,96.313
0.480,-0.522,-0.215,-198.486,100.525,109.985
0.485,-0.525,-0.245,-132.751,121.216,126.343
0.451,-0.409,-0.459,-91.431,133.728,133.301
0.392,-0.308,-0.610,-39.063,152.100,154.480
0.305,-0.062,-0.862,-36.926,153.625,166.199
0.279,0.084,-0.960,-61.646,155.090,178.101
0.150,0.424,-1.169,-77.271,160.828,174.377
0.070,0.552,-1.286,-91.003,164.185,161.133
0.016,0.593,-1.366,-106.934,140.076,111.511
-0.001,0.436,-1.395,-98.999,118.958,88.379
-0.016,0.368,-1.402,-39.978,91.797,67.566
-0.082,0.460,-1.487,-7.080,83.801,65.552
-0.099,0.572,-1.521,18.433,58.899,55.969
-0.062,0.673,-1.488,5.371,42.908,45.959
-0.020,0.591,-1.418,-35.095,17.517,24.353
0.038,0.338,-1.248,-42.480,8.972,16.174
0.050,0.254,-1.174,-22.583,-0.061,9.094
0.045,0.244,-1.098,-6.042,0.916,9.155
0.027,0.288,-1.106,6.897,5.615,9.705
0.000,0.327,-1.138,9.888,16.785,7.996
-0.049,0.323,-1.163,1.587,16.296,5.981
-0.047,0.293,-1.140,-14.771,-1.587,0.549
0.013,0.211,-1.041,-17.090,-13.367,-2.563
0.049,0.173,-0.990,-10.437,-19.897,-5.615
0.076,0.148,-0.946,-5.798,-12.756,-5.005
0.067,0.160,-0.947,-2.869,6.409,-1.892
0.039,0.185,-0.969,-4.700,12.207,-0.854
0.024,0.183,-0.982,-6.775,13.428,-1.099
0.024,0.160,-0.989,-9.644,5.066,-1.953
0.040,0.143,-0.984,-11.353,0.427,-1.343
0.051,0.128,-0.977,-13.855,-0.427,0.244
0.054,0.104,-0.981,-14.038,2.014,1.404
0.048,0.099,-0.988,-11.047,6.958,4.211
0.033,0.119,-1.005,-8.118,8.423,5.249
0.029,0.134,-1.016,-4.395,7.263,5.432
0.028,0.146,-1.027,-5.493,4.456,5.066
0.036,0.137,-1.016,-7.141,-1.892,4.700
0.049,0.129,-0.993,-4.822,-3.662,4.517
0.053,0.139,-0.988,-1.099,-4.333,4.333
0.056,0.154,-0.987,2.747,-2.380,4.883
0.054,0.171,-0.988,1.038,-0.305,5.371
0.048,0.166,-0.984,-4.028,3.052,5.737
0.044,0.155,-0.976,-4.578,3.906,5.798
0.045,0.158,-0.978,-2.380,4.944,5.066
0.034,0.166,-0.995,-1.099,5.127,4.517
0.025,0.170,-1.006,-0.793,3.601,3.723
0.010,0.170,-1.024,-2.258,2.197,2.808
0.010,0.162,-1.022,-3.723,1.160,2.014
0.016,0.156,-1.015,-3.479,0.427,1.404
0.032,0.151,-0.995,-2.625,0.671,1.221
0.034,0.148,-0.989,-1.343,1.831,0.366
0.029,0.136,-0.991,-1.709,2.258,-0.305
0.023,0.123,-0.998,-2.930,2.319,-1.343
0.022,0.105,-1.015,-2.625,1.526,-1.160
0.031,0.101,-1.017,-0.854,-1.404,-0.610
0.050,0.100,-1.009,0.122,-2.747,-0.061
0.057,0.105,-1.003,-0.061,-4.395,1.343
0.061,0.114,-0.990,-1.343,-5.127,1.831
0.060,0.115,-0.985,-2.319,-5.371,2.075
0.059,0.116,-0.984,-0.916,-3.784,2.075
0.055,0.130,-0.992,0.183,-2.808,2.197
0.052,0.135,-0.992,0.305,-1.404,2.869
0.049,0.140,-0.986,0.183,-0.732,3.296
0.044,0.146,-0.984,0.916,0.610,3.479
0.033,0.163,-0.987,0.977,0.793,3.235
0.030,0.169,-0.985,-0.610,0.305,2.441
0.028,0.176,-0.979,-1.648,-0.061,1.587
0.030,0.169,-0.977,-2.319,-0.183,0.549
0.030,0.156,-0.981,-1.953,0.366,-0.671
0.031,0.139,-0.998,-1.770,0.305,-0.244
0.036,0.135,-1.000,-3.601,-0.183,0.793
0.038,0.122,-0.992,-3.845,0.061,0.671
0.036,0.114,-0.992,-1.221,-0.305,-0.122
0.039,0.115,-1.000,0.122,-1.099,-0.427
0.046,0.116,-1.000,-0.488,-1.282,-0.671
0.052,0.106,-0.992,-1.648,-0.183,-0.610
0.052,0.101,-0.993,-3.479,2.747,0.549
0.049,0.095,-0.997,-4.211,3.601,1.099
0.048,0.096,-0.999,-4.517,3.723,1.526
0.047,0.102,-0.999,-3.845,2.869,2.136
0.043,0.121,-0.995,-3.235,2.747,2.075
0.039,0.131,-0.994,-2.319,3.967,1.770
0.035,0.138,-1.000,-2.441,4.272,1.648
0.034,0.135,-1.002,-2.625,3.906,1.709
0.029,0.131,-1.004,-2.563,3.479,2.075
0.024,0.134,-1.005,-2.991,1.709,2.136
0.022,0.142,-1.003,-3.418,1.099,1.587
0.025,0.142,-1.000,-3.845,1.099,1.160
0.030,0.137,-0.998,-4.517,2.014,0.916
0.029,0.126,-0.998,-4.578,2.136,0.671
0.025,0.118,-0.999,-2.991,1.465,-0.061
0.022,0.107,-1.006,-1.953,0.916,-0.427
0.023,0.107,-1.009,-1.831,0.122,-0.488
0.029,0.107,-1.008,-2.747,-0.244,-0.122
0.032,0.105,-1.003,-3.845,-0.244,0.061
0.033,0.101,-0.997,-3.174,0.183,0.000
0.034,0.102,-0.999,-1.648,1.160,0.000
0.038,0.099,-1.007,-1.465,1.709,0.000
0.037,0.099,-1.012,-1.587,2.380,0.183
0.034,0.101,-1.016,-1.831,3.296,0.671
0.018,0.113,-1.023,-1.770,3.113,0.732
0.011,0.119,-1.026,-3.296,0.122,1.282
0.016,0.117,-1.016,-4.639,-1.770,1.587
0.024,0.111,-1.004,-4.822,-2.563,1.221
0.034,0.107,-0.990,-3.784,-1.587,0.854
0.035,0.110,-0.991,-2.319,0.610,0.183

0.755,0.615,1.391,-191.833,148.926,228.821
0.878,0.814,1.291,-156.128,255.615,213.623
1.045,1.164,0.901,-125.122,306.885,196.777
1.058,1.268,0.650,-37.109,370.483,124.451
0.889,1.338,0.177,31.067,381.348,73.486
0.804,1.356,-0.075,119.507,379.211,19.653
0.819,1.438,-0.388,299.622,347.351,-92.224
0.914,1.605,-1.003,346.863,326.233,-145.752
0.866,1.558,-1.226,316.895,272.583,-238.098
0.673,1.146,-1.469,251.404,236.267,-279.053
0.639,0.818,-1.541,102.844,154.602,-326.294
0.568,0.126,-1.583,55.542,110.413,-315.674
0.603,-0.189,-1.509,36.011,15.259,-257.141
0.562,-0.567,-1.215,44.312,-33.447,-228.149
0.526,-0.606,-1.055,58.777,-78.308,-197.205
0.531,-0.601,-0.781,86.304,-142.639,-127.197
0.558,-0.587,-0.647,81.482,-160.767,-95.642
0.572,-0.573,-0.501,48.340,-169.800,-45.837
0.569,-0.530,-0.241,26.978,-161.316,-26.794
0.570,-0.513,-0.132,-25.208,-132.141,3.052
0.573,-0.536,0.100,-49.377,-115.112,17.517
0.577,-0.555,0.202,-75.867,-76.721,48.096
0.594,-0.562,0.347,-78.430,-56.458,63.782
0.597,-0.540,0.390,-69.580,-16.602,94.299
0.599,-0.437,0.395,-65.735,1.770,110.474
0.644,-0.391,0.374,-73.914,35.278,140.015
0.712,-0.337,0.318,-80.811,52.673,150.330
0.702,-0.309,0.290,-86.731,71.472,157.959
0.670,-0.282,0.275,-100.037,104.675,172.729
0.643,-0.244,0.299,-106.445,116.699,184.448
0.699,-0.197,0.280,-110.901,148.437,214.783
0.809,-0.038,0.144,-116.394,176.147,227.234
0.796,0.065,0.043,-143.250,246.338,246.704
0.638,0.238,-0.130,-159.546,275.391,253.540
0.565,0.295,-0.184,-171.753,295.288,256.409
0.534,0.457,-0.355,-166.077,317.383,246.033
0.477,0.581,-0.512,-150.879,327.332,231.506
0.371,0.695,-0.688,-142.761,345.459,183.533
0.169,0.777,-0.940,-152.039,349.304,154.724
0.079,0.739,-1.015,-153.992,332.825,100.037
-0.037,0.580,-1.212,-139.465,306.885,74.341
-0.066,0.492,-1.296,-96.436,238.586,42.786
-0.096,0.423,-1.387,-76.660,204.407,37.415
-0.126,0.462,-1.412,-54.871,130.249,25.024
-0.113,0.542,-1.456,-57.434,97.107,17.944
-0.058,0.533,-1.460,-69.885,75.500,11.230
-0.016,0.480,-1.438,-100.464,71.411,-4.150
-0.018,0.274,-1.337,-100.647,77.209,-13.062
-0.042,0.196,-1.301,-61.707,73.120,-24.292
-0.052,0.145,-1.268,-36.194,64.087,-23.926
-0.033,0.138,-1.275,-2.197,49.561,-18.250
0.002,0.125,-1.320,0.610,45.898,-15.198
-0.002,0.107,-1.312,-12.512,39.185,-7.446
-0.031,0.073,-1.250,-18.433,33.997,-3.540
-0.043,0.070,-1.215,-13.428,17.212,2.075
0.001,0.101,-1.146,-5.554,7.935,3.662
0.024,0.125,-1.118,1.343,1.648,3.967
0.036,0.141,-1.095,8.118,0.549,1.770
0.041,0.145,-1.071,9.399,3.845,0.732
0.040,0.142,-1.058,9.277,11.414,1.160
0.031,0.163,-1.036,8.118,13.733,1.770
0.026,0.178,-1.029,5.310,12.512,3.174
0.024,0.203,-1.014,3.784,9.216,3.845
0.029,0.209,-1.006,2.625,5.310,3.662
0.038,0.210,-0.999,2.380,0.000,1.282
0.053,0.206,-0.980,2.319,0.305,0.366
0.059,0.205,-0.972,0.183,5.554,-0.366
0.060,0.211,-0.974,-1.404,9.033,-0.916
0.052,0.219,-0.980,-6.714,13.428,-2.563
0.035,0.213,-0.997,-10.864,13.611,-3.113
0.030,0.198,-1.007,-17.517,11.414,-3.723
0.020,0.159,-1.025,-17.700,9.705,-3.540
0.018,0.146,-1.029,-15.686,7.751,-2.319
0.020,0.144,-1.031,-8.606,4.272,0.671
0.026,0.164,-1.023,-5.066,3.784,0.977
0.024,0.177,-1.019,-1.648,5.371,-0.061
0.019,0.188,-1.019,-2.258,6.470,-0.977
0.015,0.182,-1.017,-5.188,7.629,-3.479
0.003,0.161,-1.008,-5.737,7.202,-4.578
-0.001,0.155,-1.005,-4.517,3.296,-5.249
-0.001,0.153,-1.005,-3.662,0.366,-5.005
0.003,0.152,-1.005,-2.441,-3.113,-3.967
0.015,0.153,-0.997,-2.686,-2.441,-3.662
0.018,0.150,-0.985,-3.418,-0.732,-3.601
0.019,0.148,-0.975,-4.150,3.235,-3.845
0.017,0.142,-0.968,-3.784,4.333,-4.639
0.011,0.137,-0.968,-2.380,5.127,-5.859
0.000,0.136,-0.980,-2.380,4.639,-4.333
0.006,0.145,-0.987,-6.165,1.099,0.427
0.019,0.157,-0.984,-8.667,-0.427,0.732
0.019,0.157,-0.983,-9.033,0.671,-1.587
0.006,0.152,-0.989,-7.019,2.869,-2.808
-0.003,0.151,-0.995,-4.272,5.249,-3.906
-0.019,0.151,-1.003,-0.061,6.897,-5.371
-0.020,0.150,-1.002,0.183,5.310,-5.371
-0.014,0.144,-0.999,-2.625,1.099,-4.089
-0.001,0.125,-0.993,-3.845,0.244,-3.540
0.002,0.121,-0.992,-4.272,0.488,-2.747
0.003,0.119,-0.989,-3.723,0.488,-3.296
0.004,0.116,-0.988,-0.916,0.183,-4.761
0.011,0.117,-0.991,0.610,0.610,-4.944
0.011,0.117,-0.993,1.709,2.502,-4.395
0.010,0.115,-0.995,1.099,3.052,-3.540
0.014,0.118,-0.994,0.183,3.052,-2.319
0.014,0.126,-0.993,-1.404,2.869,-1.526
0.010,0.127,-0.993,-1.892,2.747,-2.014
0.004,0.128,-0.995,-1.648,2.380,-2.380
-0.003,0.129,-1.003,-1.099,1.709,-2.075
0.000,0.131,-1.006,-0.061,-0.854,-0.122
0.011,0.141,-1.004,0.000,-1.343,0.916
0.012,0.148,-1.002,-0.610,0.183,1.831
0.002,0.156,-1.003,-0.916,1.099,1.648
-0.004,0.156,-1.004,-0.977,1.221,0.977
-0.007,0.158,-1.006,-1.221,0.549,0.732
-0.005,0.156,-1.003,-1.404,-0.122,0.366
-0.004,0.153,-0.998,-0.427,-0.732,-0.854
-0.003,0.149,-0.991,0.732,-0.793,-0.977
0.001,0.153,-0.992,0.305,-0.366,0.244
0.004,0.154,-0.995,-1.892,0.610,0.549

-0.022,1.485,-1.350,-89.111,152.710,57.861
-0.259,1.504,-1.541,-147.888,186.584,-53.223
-0.531,1.075,-1.823,-128.296,164.978,-124.817
-0.587,0.813,-1.928,13.977,108.643,-252.441
-0.567,0.689,-2.159,92.407,98.999,-307.373
-0.636,0.787,-2.243,148.743,100.891,-421.570
-1.110,0.915,-2.133,115.540,88.379,-481.750
-1.425,0.663,-1.976,60.303,60.913,-535.034
-1.515,-0.103,-2.101,8.911,-57.800,-544.617
-1.459,-0.333,-2.093,21.240,-178.162,-497.742
-1.538,-0.603,-1.889,30.762,-475.769,-395.386
-1.531,-1.222,-1.264,28.564,-582.092,-356.811
-1.346,-1.479,-0.966,52.917,-646.362,-313.049
-1.043,-1.597,-0.575,72.205,-622.986,-294.067
-0.900,-1.446,-0.455,78.064,-535.461,-227.112
-0.825,-0.908,-0.313,35.278,-501.099,-184.998
-0.802,-0.724,-0.147,-175.537,-489.746,-102.478
-0.700,-0.827,0.616,-286.987,-501.770,-58.350
-0.614,-0.951,0.989,-345.154,-508.057,35.400
-0.215,-0.806,1.450,-295.166,-485.413,83.862
0.069,-0.481,1.575,-177.307,-361.938,187.561
0.462,0.463,1.518,-166.809,-271.179,227.844
0.449,0.826,1.573,-214.844,-183.105,249.817
0.504,1.208,1.854,-386.780,-38.208,248.840
0.605,1.351,1.898,-431.457,26.184,238.464
0.747,1.499,1.820,-382.263,165.955,200.928
1.104,1.857,1.334,-309.998,243.408,163.452
1.191,1.916,1.022,-148.743,378.113,45.349
0.939,1.695,0.281,-74.097,406.860,-32.410
0.736,1.509,-0.088,80.383,378.174,-206.909
0.433,1.263,-0.875,151.062,342.590,-274.414
0.399,1.155,-1.352,195.435,302.124,-313.171
0.481,0.974,-1.765,179.443,203.674,-316.650
0.615,0.434,-2.136,140.625,149.719,-310.364
0.601,0.096,-2.109,110.596,56.702,-334.106
0.416,-0.452,-1.871,135.071,23.865,-352.295
0.265,-0.541,-1.762,189.392,-59.509,-335.388
0.054,-0.574,-1.503,186.462,-130.798,-283.936
0.091,-0.687,-1.230,129.456,-264.587,-165.710
0.249,-0.974,-0.595,103.638,-288.025,-133.606
0.289,-1.006,-0.354,75.195,-263.794,-95.947
0.230,-0.855,-0.076,56.946,-243.896,-70.190
0.205,-0.765,0.035,22.217,-226.135,-41.382
0.334,-0.708,0.286,-91.064,-201.416,3.723
0.376,-0.747,0.453,-143.494,-187.683,19.104
0.449,-0.789,0.598,-193.542,-135.864,59.021
0.430,-0.804,0.803,-191.467,-97.778,86.975
0.449,-0.750,0.864,-160.522,-13.123,143.616
0.572,-0.591,0.914,-143.066,24.414,168.396
0.574,-0.484,0.913,-115.112,105.652,212.280
0.634,-0.244,0.778,-113.220,149.536,228.333
0.670,-0.156,0.687,-140.442,234.070,239.136
0.590,-0.059,0.539,-153.625,270.996,238.647
0.478,-0.004,0.457,-158.569,301.758,239.441
0.422,0.089,0.332,-154.175,350.647,246.338
0.417,0.329,-0.044,-152.405,372.803,246.826
0.383,0.435,-0.240,-163.452,409.790,230.835
0.232,0.527,-0.524,-164.551,423.279,218.079
0.129,0.530,-0.635,-129.272,425.110,181.641
0.026,0.618,-0.931,-100.464,407.165,151.978
-0.085,0.714,-1.091,-70.557,337.219,91.980
-0.179,0.822,-1.354,-87.158,289.673,74.646
-0.106,0.729,-1.399,-116.333,241.272,64.209
0.031,0.407,-1.331,-137.024,181.152,48.767
0.042,0.323,-1.303,-112.366,177.917,41.382
0.020,0.318,-1.310,-41.016,195.129,28.564
-0.091,0.436,-1.399,-16.357,197.571,21.362
-0.189,0.497,-1.446,-5.188,171.143,3.784
-0.263,0.571,-1.532,-17.151,144.409,0.977
-0.231,0.550,-1.538,-61.401,85.449,9.949
-0.153,0.395,-1.445,-79.102,65.125,12.695
-0.135,0.307,-1.385,-80.139,47.607,5.005
-0.126,0.180,-1.293,-63.171,44.800,0.916
-0.123,0.173,-1.267,-13.672,40.039,-1.282
-0.125,0.270,-1.256,8.972,36.804,-1.953
-0.134,0.330,-1.270,25.269,33.081,-3.540
-0.138,0.374,-1.292,28.381,23.010,-6.470
-0.127,0.393,-1.297,14.709,16.724,-6.409
-0.107,0.355,-1.260,-21.301,3.601,-4.761
-0.040,0.224,-1.153,-31.128,-0.183,-4.456
-0.018,0.168,-1.107,-23.010,-0.061,-5.005
-0.003,0.125,-1.067,-10.925,1.953,-4.639
-0.007,0.129,-1.075,8.667,5.188,-3.540
-0.035,0.160,-1.093,12.146,4.395,-2.747
-0.051,0.181,-1.088,7.141,-4.089,0.977
-0.043,0.201,-1.034,2.197,-10.193,2.808
-0.019,0.204,-1.001,-1.221,-15.259,3.906
0.015,0.217,-0.955,-1.587,-16.785,3.540
0.014,0.220,-0.949,-0.549,-13.733,2.502
0.007,0.217,-0.950,0.000,-5.737,1.343
-0.016,0.213,-0.958,-0.244,-3.357,1.831
-0.022,0.221,-0.961,-0.793,-3.784,3.235
-0.024,0.250,-0.971,-1.099,-4.822,3.540
-0.021,0.256,-0.977,-1.465,-5.493,2.563
-0.018,0.252,-0.979,-1.160,-5.371,2.014
-0.018,0.250,-0.979,-0.061,-5.432,0.916
-0.014,0.246,-0.978,0.366,-6.104,0.061
-0.010,0.241,-0.977,2.258,-6.958,-0.610
0.000,0.232,-0.971,3.296,-6.348,-0.610
0.001,0.230,-0.968,3.723,-5.310,-0.488
0.001,0.229,-0.965,3.174,-3.845,-0.610
-0.003,0.226,-0.966,2.380,-3.601,-1.099
-0.009,0.225,-0.975,-0.183,-4.517,-1.892
0.001,0.213,-0.988,-1.709,-5.615,-1.709
0.015,0.203,-0.982,-2.136,-6.653,-0.977
0.039,0.202,-0.963,-0.916,-6.104,-0.671
0.043,0.209,-0.958,0.427,-3.296,-0.061
0.041,0.214,-0.960,-0.549,-1.648,0.244
0.037,0.211,-0.963,-3.235,0.610,0.671
0.029,0.206,-0.969,-3.662,0.977,1.099
0.024,0.210,-0.972,-3.235,0.916,1.526
0.019,0.215,-0.973,-0.610,0.183,2.258
0.011,0.230,-0.968,0.916,-0.061,2.869
0.006,0.241,-0.965,3.052,0.122,3.662
-0.004,0.264,-0.961,3.113,0.427,3.418
-0.008,0.273,-0.961,0.732,0.916,2.502
-0.008,0.263,-0.958,-1.221,1.160,1.892
-0.003,0.248,-0.956,-3.418,2.563,0.366
-0.008,0.230,-0.963,-3.540,3.357,-0.183

-0.286,0.924,-1.555,-56.030,100.525,-57.495
-0.358,0.858,-1.658,-36.804,74.280,-152.405
-0.498,0.689,-1.828,-18.860,72.388,-185.547
-0.568,0.609,-1.905,19.470,74.829,-222.229
-0.729,0.566,-2.014,32.959,62.256,-229.126
-0.787,0.611,-2.055,26.917,-5.981,-232.239
-0.892,0.562,-2.080,1.221,-61.096,-235.535
-0.866,0.411,-2.031,-60.486,-186.584,-232.910
-0.778,0.011,-1.770,-76.782,-243.347,-221.619
-0.718,-0.119,-1.593,-80.444,-289.429,-206.238
-0.624,-0.197,-1.278,-71.533,-346.619,-184.082
-0.621,-0.225,-1.146,-68.115,-365.295,-181.030
-0.630,-0.266,-1.010,-63.721,-400.574,-178.589
-0.574,-0.381,-0.699,-57.678,-419.067,-172.485
-0.526,-0.417,-0.563,-40.527,-445.923,-148.437
-0.472,-0.399,-0.342,-42.297,-448.608,-133.545
-0.433,-0.403,-0.231,-69.580,-441.040,-104.431
-0.402,-0.487,0.047,-89.478,-432.434,-90.759
-0.401,-0.554,0.215,-125.366,-417.175,-60.486
-0.365,-0.688,0.548,-131.714,-413.025,-41.748
-0.306,-0.744,0.692,-111.328,-398.987,6.165
-0.071,-0.723,0.850,-94.543,-383.057,34.363
0.031,-0.648,0.911,-89.905,-329.468,98.755
0.302,-0.498,1.072,-106.689,-295.654,129.639
0.415,-0.413,1.160,-139.709,-208.923,175.964
0.686,-0.194,1.341,-145.325,-159.241,194.458
0.805,-0.038,1.415,-148.804,-114.197,209.106
0.924,0.142,1.478,-158.875,-17.822,227.722
1.097,0.553,1.437,-162.354,45.105,228.943
1.113,0.785,1.303,-179.077,185.791,204.651
1.093,1.264,0.832,-193.298,253.906,185.425
1.080,1.479,0.515,-198.059,373.840,139.404
0.870,1.645,-0.153,-177.673,406.860,93.140
0.653,1.558,-0.433,-88.623,372.864,-61.462
0.510,1.182,-0.863,-14.648,325.134,-136.841
0.520,0.995,-1.090,70.740,277.710,-194.580
0.543,0.823,-1.358,194.336,195.312,-248.108
0.698,0.493,-1.806,202.881,155.945,-248.352
0.744,0.309,-1.879,149.231,80.566,-232.361
0.656,-0.097,-1.681,120.728,42.175,-231.201
0.614,-0.274,-1.489,103.455,-25.085,-238.647
0.500,-0.532,-1.102,118.958,-50.110,-234.497
0.408,-0.572,-0.976,151.978,-105.286,-178.589
0.381,-0.546,-0.748,149.963,-139.221,-138.672
0.455,-0.540,-0.608,116.333,-182.434,-88.379
0.521,-0.546,-0.337,89.416,-181.274,-76.172
0.524,-0.546,-0.215,58.105,-168.640,-64.697
0.502,-0.584,-0.024,0.122,-130.859,-28.748
0.477,-0.605,0.056,-20.264,-111.389,-6.165
0.463,-0.606,0.112,-38.757,-77.576,35.278
0.463,-0.526,0.154,-44.495,-66.223,51.514
0.496,-0.484,0.159,-66.162,-47.363,78.308
0.664,-0.456,0.208,-78.430,-33.142,91.309
0.762,-0.459,0.237,-89.111,5.615,118.103
0.772,-0.446,0.273,-83.252,32.104,131.409
0.718,-0.414,0.273,-64.514,89.233,160.522
0.641,-0.276,0.234,-59.204,111.877,177.429
0.627,-0.175,0.182,-60.059,129.333,194.824
0.630,0.021,0.034,-86.731,159.058,221.374
0.629,0.090,-0.022,-107.483,175.293,225.464
0.616,0.154,-0.070,-132.996,212.158,220.947
0.578,0.301,-0.212,-130.676,233.093,216.492
0.539,0.371,-0.318,-100.037,277.954,205.811
0.382,0.543,-0.573,-80.139,302.307,202.270
0.292,0.684,-0.718,-57.190,346.985,203.125
-0.064,0.989,-1.042,-63.721,348.938,194.824
-0.126,1.079,-1.203,-84.290,326.477,171.082
-0.054,0.970,-1.333,-126.709,233.459,95.703
0.005,0.839,-1.326,-127.014,187.744,62.683
0.058,0.723,-1.312,-83.374,138.306,29.785
0.096,0.640,-1.329,-54.016,134.766,27.527
0.107,0.656,-1.354,-23.743,138.794,24.841
0.120,0.630,-1.385,-26.184,136.475,18.066
0.112,0.570,-1.380,-43.152,118.164,1.282
0.091,0.434,-1.320,-48.706,103.760,-4.578
0.082,0.381,-1.270,-44.373,73.914,-8.362
0.065,0.324,-1.168,-35.156,61.462,-6.104
0.068,0.335,-1.148,-25.024,52.856,-1.770
0.071,0.360,-1.157,-18.860,51.636,3.052
0.050,0.355,-1.202,-25.146,56.152,0.854
0.034,0.316,-1.203,-37.231,56.274,-3.479
-0.028,0.234,-1.152,-34.912,48.340,-3.540
-0.031,0.218,-1.131,-16.235,24.048,-0.244
0.018,0.239,-1.100,-5.676,14.099,3.174
0.035,0.268,-1.082,2.808,7.568,7.385
0.041,0.307,-1.035,-0.732,8.362,7.263
0.037,0.311,-1.011,-12.451,9.521,6.470
0.038,0.297,-0.971,-15.686,9.216,5.981
0.040,0.289,-0.955,-15.747,9.583,5.127
0.036,0.286,-0.945,-9.033,13.733,2.869
0.009,0.304,-0.952,-5.554,15.503,1.587
-0.004,0.312,-0.963,-6.531,14.648,0.549
-0.000,0.301,-0.973,-10.559,13.428,0.732
0.006,0.283,-0.974,-17.212,13.000,0.183
0.010,0.256,-0.981,-17.883,12.817,-0.671
0.007,0.247,-0.982,-14.648,10.864,-2.380
-0.003,0.242,-0.982,-11.658,10.620,-2.563
-0.010,0.244,-0.986,-8.728,11.597,-2.441
-0.026,0.247,-1.002,-5.432,13.977,-3.296
-0.029,0.243,-1.009,-5.188,13.550,-3.967
-0.030,0.233,-1.010,-5.737,9.766,-4.028
-0.024,0.211,-1.003,-5.737,7.263,-3.052
-0.017,0.206,-1.001,-5.981,4.150,-0.488
-0.015,0.212,-1.004,-6.714,3.235,0.366
-0.016,0.215,-1.003,-8.057,1.892,1.465
-0.021,0.220,-0.999,-7.507,1.587,1.404
-0.022,0.221,-0.997,-2.808,0.854,0.122
-0.019,0.224,-1.001,0.244,0.732,-0.549
-0.018,0.228,-1.006,1.526,1.587,-0.854
-0.015,0.229,-1.006,-0.793,1.953,-0.610
-0.016,0.223,-1.003,-3.601,2.014,-0.488
-0.017,0.215,-0.998,-5.981,0.732,-0.427
-0.012,0.205,-0.989,-5.493,-0.244,-0.061
-0.009,0.203,-0.984,-3.052,-0.732,0.671
-0.007,0.207,-0.976,-1.404,-0.122,0.854
-0.011,0.219,-0.976,0.793,0.854,1.343
-0.016,0.238,-0.979,0.122,0.916,1.343
-0.017,0.237,-0.980,-2.502,0.916,0.793
-0.025,0.224,-0.984,-3.174,0.610,0.610

-0.409,0.837,-1.644,-58.411,99.976,-2.136
-0.471,0.852,-1.716,-83.435,70.740,-57.495
-0.532,0.723,-1.737,-85.937,53.162,-80.200
-0.526,0.623,-1.726,-59.998,30.457,-115.723
-0.574,0.509,-1.762,-38.330,24.170,-131.409
-0.622,0.494,-1.798,-3.662,3.845,-165.100
-0.708,0.428,-1.782,5.859,-18.738,-183.960
-0.729,0.379,-1.727,18.127,-88.318,-214.233
-0.715,0.320,-1.595,20.813,-128.357,-222.656
-0.693,0.271,-1.515,18.799,-167.480,-230.713
-0.681,0.193,-1.431,6.897,-236.084,-254.395
-0.696,-0.016,-1.276,1.282,-265.991,-265.198
-0.715,-0.122,-1.209,-5.920,-323.669,-270.935
-0.787,-0.347,-1.007,-7.751,-356.018,-269.775
-0.800,-0.486,-0.860,1.038,-428.894,-262.878
-0.738,-0.721,-0.586,16.113,-459.717,-255.127
-0.663,-0.787,-0.485,52.490,-495.361,-228.821
-0.570,-0.815,-0.334,61.096,-500.427,-212.646
-0.533,-0.788,-0.236,36.316,-492.798,-173.462
-0.427,-0.749,0.045,2.563,-486.084,-148.437
-0.348,-0.763,0.222,-83.679,-475.708,-90.820
-0.201,-0.851,0.613,-120.728,-468.018,-61.584
-0.120,-0.870,0.792,-148.682,-433.105,4.089
0.165,-0.800,1.128,-145.874,-404.053,43.640
0.321,-0.689,1.297,-143.555,-367.126,87.097
0.467,-0.527,1.443,-146.729,-270.386,172.974
0.727,-0.119,1.628,-154.541,-215.332,203.491
0.761,0.122,1.669,-194.824,-94.299,221.802
1.036,0.533,1.668,-229.248,-30.090,213.135
1.064,0.704,1.618,-306.335,112.976,182.251
1.029,1.016,1.291,-326.782,197.754,173.096
1.041,1.218,0.978,-289.795,367.798,160.034
0.988,1.538,0.258,-243.530,438.599,136.719
0.816,1.571,-0.073,-202.820,483.887,85.449
0.543,1.505,-0.395,-143.921,465.759,-82.336
0.176,0.968,-0.949,-87.341,409.790,-161.072
0.150,0.648,-1.183,80.383,269.287,-239.807
0.285,0.277,-1.850,142.456,209.839,-238.953
0.434,0.193,-2.108,150.940,101.196,-211.487
0.532,-0.050,-2.055,116.394,50.171,-207.092
0.510,-0.244,-1.844,69.397,-34.119,-213.196
0.450,-0.564,-1.350,77.881,-70.068,-221.191
0.407,-0.647,-1.133,105.957,-103.210,-230.957
0.326,-0.691,-0.856,174.011,-160.767,-238.342
0.324,-0.669,-0.778,190.796,-186.035,-223.572
0.325,-0.652,-0.681,180.054,-226.624,-152.100
0.281,-0.677,-0.360,154.053,-239.319,-112.488
0.337,-0.682,-0.194,72.693,-247.925,-59.509
0.491,-0.670,0.098,37.903,-240.906,-40.039
0.538,-0.677,0.248,-4.761,-193.726,6.470
0.542,-0.690,0.483,-17.090,-154.053,32.898
0.610,-0.663,0.526,-30.029,-70.496,79.956
0.618,-0.558,0.548,-34.119,-35.522,98.022
0.582,-0.499,0.565,-55.481,23.682,130.188
0.592,-0.407,0.572,-67.993,50.110,145.569
0.610,-0.363,0.547,-77.209,76.172,159.790
0.630,-0.313,0.488,-86.853,131.714,183.166
0.648,-0.198,0.291,-92.529,161.316,192.993
0.613,-0.127,0.194,-110.535,212.891,210.815
0.496,-0.004,0.038,-120.605,231.384,219.116
0.479,0.050,-0.024,-131.104,258.545,232.422
0.471,0.201,-0.219,-126.465,270.325,234.863
0.449,0.305,-0.362,-108.582,295.593,228.149
0.335,0.494,-0.630,-106.018,308.105,224.182
0.251,0.569,-0.759,-111.145,317.810,221.252
0.184,0.659,-0.905,-127.808,315.125,200.256
0.068,0.789,-1.217,-125.610,295.898,175.598
0.013,0.790,-1.304,-96.252,235.229,122.620
-0.020,0.765,-1.381,-80.688,206.909,109.863
0.026,0.795,-1.414,-62.744,174.316,109.741
0.046,0.939,-1.476,-61.768,172.607,108.582
-0.002,0.975,-1.488,-70.557,167.969,76.416
-0.089,0.865,-1.460,-68.298,152.405,49.561
-0.100,0.789,-1.452,-58.105,130.676,25.391
-0.039,0.669,-1.414,-43.823,84.229,3.662
0.008,0.590,-1.353,-48.523,65.308,2.563
0.055,0.500,-1.285,-61.768,46.387,-0.549
0.088,0.333,-1.187,-62.378,47.058,-3.723
0.067,0.275,-1.151,-47.729,53.711,-6.531
0.028,0.246,-1.136,-35.217,53.528,-7.507
0.013,0.255,-1.149,-10.864,44.312,-17.212
-0.019,0.256,-1.156,-1.648,38.025,-21.606
-0.019,0.259,-1.161,-0.610,26.123,-15.015
0.019,0.244,-1.136,-9.155,20.813,-7.996
0.035,0.226,-1.106,-26.245,15.381,0.000
0.045,0.192,-1.051,-29.236,15.076,1.831
0.045,0.183,-1.036,-27.832,15.625,3.235
0.042,0.182,-1.030,-16.052,17.395,3.967
0.014,0.209,-1.028,-9.277,16.357,3.357
0.009,0.228,-1.024,-3.601,9.460,3.723
0.023,0.252,-1.004,-5.615,6.958,4.761
0.023,0.256,-0.992,-12.024,8.423,5.615
0.004,0.254,-0.984,-13.794,10.376,5.127
-0.007,0.249,-0.989,-12.695,12.085,4.395
-0.021,0.249,-1.011,-11.292,11.597,4.272
-0.024,0.241,-1.014,-10.193,10.315,3.845
-0.024,0.233,-1.010,-6.714,5.676,3.540
-0.017,0.235,-0.996,-3.845,2.625,4.211
-0.010,0.244,-0.990,0.977,-1.770,6.042
-0.011,0.266,-0.983,1.892,-2.136,6.348
-0.015,0.275,-0.982,0.549,-1.709,5.615
-0.018,0.275,-0.977,-1.038,-1.648,4.578
-0.015,0.262,-0.973,-2.380,-1.709,2.014
-0.010,0.237,-0.968,-1.221,-1.526,1.465
-0.008,0.233,-0.966,1.160,-1.892,1.831
-0.006,0.236,-0.959,1.282,-2.686,2.258
-0.002,0.238,-0.955,0.854,-3.662,2.686
0.004,0.241,-0.952,-0.916,-3.418,2.808
0.015,0.242,-0.952,-1.892,-1.953,2.502
0.016,0.238,-0.954,-3.418,0.854,1.892
0.005,0.233,-0.970,-3.906,1.343,1.953
0.001,0.232,-0.980,-5.981,0.183,2.258
-0.001,0.227,-0.987,-6.775,-0.549,2.380
0.002,0.225,-0.984,-6.042,-1.099,2.319
0.003,0.227,-0.980,-4.944,-0.977,1.892
0.003,0.227,-0.978,-2.075,-0.244,0.732
-0.003,0.234,-0.977,-1.038,0.366,0.366
-0.006,0.238,-0.979,-0.916,0.793,0.244
-0.006,0.239,-0.979,-3.540,0.610,0.366

-0.594,0.572,-1.692,98.877,188.049,-316.467
-0.776,0.474,-1.821,127.625,102.417,-357.605
-0.880,0.323,-1.954,123.962,34.912,-346.130
-0.811,0.279,-1.938,68.115,-125.061,-306.152
-0.730,0.055,-1.715,21.484,-201.416,-293.884
-0.715,-0.127,-1.543,-57.739,-325.989,-286.011
-0.696,-0.541,-1.155,-72.693,-373.596,-290.710
-0.696,-0.769,-0.925,-41.687,-445.190,-309.204
-0.629,-1.071,-0.587,-4.150,-466.614,-305.542
-0.579,-1.076,-0.495,77.393,-489.624,-257.690
-0.610,-0.884,-0.363,91.553,-499.084,-225.708
-0.598,-0.748,-0.250,7.568,-525.940,-153.809
-0.434,-0.722,0.192,-71.411,-537.476,-119.995
-0.312,-0.806,0.474,-143.982,-533.569,-87.769
0.064,-0.777,0.822,-206.909,-456.055,-8.301
0.172,-0.675,0.949,-209.351,-397.278,37.476
0.182,-0.563,1.081,-219.055,-288.391,116.272
0.393,-0.338,1.293,-224.976,-242.126,144.348
0.447,-0.185,1.387,-231.018,-159.912,181.519
0.607,0.261,1.573,-237.183,-114.197,197.205
0.874,0.501,1.610,-260.681,3.296,218.384
1.026,1.038,1.451,-280.823,83.862,217.529
1.054,1.302,1.219,-317.749,272.156,190.186
1.118,1.742,0.628,-314.148,360.657,166.870
1.031,1.809,0.387,-288.147,434.448,138.489
0.798,1.749,0.170,-251.343,510.132,42.908
0.358,1.495,-0.334,-251.526,508.301,-22.339
0.248,1.250,-0.610,-176.453,423.950,-145.447
0.181,0.711,-1.154,-84.717,353.882,-192.566
0.181,0.539,-1.387,117.004,217.651,-245.239
0.288,0.380,-1.835,177.063,167.725,-252.930
0.354,0.315,-1.983,185.181,94.116,-249.878
0.300,0.126,-1.991,156.738,57.434,-251.953
0.231,-0.018,-1.872,128.845,13.672,-259.521
0.156,-0.287,-1.474,110.718,-99.487,-290.405
0.104,-0.396,-1.305,120.544,-157.288,-307.251
0.069,-0.468,-1.199,128.601,-255.432,-307.312
0.137,-0.612,-0.952,122.009,-288.391,-287.476
0.163,-0.705,-0.762,90.454,-323.914,-240.906
0.105,-0.766,-0.435,65.002,-336.548,-208.801
0.137,-0.789,-0.272,-21.606,-362.061,-129.333
0.388,-0.954,0.159,-61.768,-363.342,-93.872
0.500,-1.034,0.383,-84.595,-314.209,-22.949
0.622,-0.971,0.647,-65.552,-268.127,14.526
0.655,-0.834,0.726,-20.142,-167.664,86.365
0.618,-0.522,0.805,-17.212,-121.277,114.380
0.667,-0.385,0.825,-33.875,-77.759,133.057
0.732,-0.236,0.832,-83.496,-4.333,145.691
0.732,-0.201,0.805,-98.938,31.433,144.714
0.740,-0.168,0.750,-108.765,103.394,141.357
0.771,-0.074,0.588,-109.314,135.071,142.822
0.788,-0.021,0.500,-109.436,192.993,155.762
0.787,0.107,0.331,-106.873,221.008,165.894
0.751,0.181,0.238,-94.482,265.442,184.998
0.669,0.335,0.050,-86.975,278.503,188.232
0.676,0.409,-0.044,-79.529,285.217,186.768
0.644,0.448,-0.125,-75.989,290.405,171.509
0.648,0.461,-0.228,-86.182,293.945,158.691
0.627,0.429,-0.234,-99.854,303.406,136.719
0.525,0.368,-0.256,-96.313,308.533,127.808
0.467,0.357,-0.312,-72.205,314.941,111.816
0.341,0.340,-0.473,-60.364,309.570,101.562
0.289,0.337,-0.568,-36.560,285.278,84.412
0.226,0.369,-0.728,-25.330,273.315,81.482
0.197,0.391,-0.783,-19.348,264.221,82.581
0.178,0.415,-0.840,-28.503,257.812,84.656
0.109,0.463,-0.988,-41.077,261.108,81.848
0.008,0.516,-1.081,-74.524,266.235,70.923
-0.218,0.565,-1.234,-88.806,253.784,64.209
-0.281,0.536,-1.294,-96.985,186.096,46.082
-0.239,0.413,-1.375,-89.539,141.418,36.255
-0.181,0.363,-1.390,-58.899,81.482,23.315
-0.138,0.363,-1.420,-46.082,76.477,21.423
-0.165,0.378,-1.437,-39.490,82.214,20.691
-0.239,0.353,-1.425,-32.349,92.346,18.372
-0.258,0.348,-1.411,-23.376,84.778,17.090
-0.254,0.357,-1.387,5.737,47.119,16.296
-0.181,0.422,-1.329,18.372,28.259,15.320
-0.135,0.445,-1.309,21.729,9.583,10.559
-0.087,0.429,-1.264,13.550,8.667,7.812
-0.082,0.392,-1.228,-4.883,12.390,3.784
-0.080,0.330,-1.158,-9.766,12.695,3.113
-0.071,0.317,-1.130,-7.385,6.042,2.502
-0.046,0.317,-1.086,-2.930,1.038,2.075
-0.033,0.320,-1.070,0.916,-2.686,1.587
-0.026,0.322,-1.044,1.953,-4.395,0.244
-0.028,0.319,-1.037,-1.099,-3.174,0.000
-0.034,0.312,-1.030,-10.437,0.549,0.488
-0.049,0.292,-1.007,-13.855,1.831,1.038
-0.051,0.285,-0.992,-12.451,0.732,0.000
-0.051,0.274,-0.966,-7.690,-1.587,-2.319
-0.049,0.270,-0.959,2.747,-6.042,-5.981
-0.033,0.274,-0.951,5.493,-7.263,-6.287
-0.018,0.275,-0.947,4.700,-7.629,-5.676
0.002,0.261,-0.928,2.991,-6.714,-5.188
0.006,0.259,-0.920,0.732,-3.662,-2.197
0.013,0.279,-0.912,-0.610,-1.831,-0.122
0.007,0.291,-0.912,-2.502,0.244,1.160
-0.005,0.300,-0.914,-5.676,4.578,0.793
-0.024,0.301,-0.936,-6.714,6.653,-0.122
-0.035,0.293,-0.946,-7.935,9.277,-2.441
-0.057,0.267,-0.954,-7.263,8.850,-3.296
-0.063,0.257,-0.959,-4.028,5.249,-2.502
-0.060,0.249,-0.974,-3.052,3.052,-1.038
-0.057,0.247,-0.977,-3.174,0.610,2.075
-0.053,0.247,-0.970,-3.174,0.488,2.930
-0.050,0.246,-0.964,-1.587,0.732,3.235
-0.043,0.246,-0.956,-0.244,1.221,3.235
-0.039,0.251,-0.956,1.892,3.235,3.357
-0.037,0.251,-0.967,2.258,3.845,3.052
-0.038,0.245,-0.980,2.441,3.723,2.686
-0.042,0.237,-0.992,3.418,2.258,2.258
-0.056,0.232,-1.012,4.272,1.160,2.380
-0.064,0.240,-1.025,6.104,-0.854,4.517
-0.098,0.253,-1.065,5.127,-1.099,5.493
-0.126,0.246,-1.085,1.526,-1.587,4.517
-0.182,0.223,-1.083,1.770,-4.639,3.723
-0.188,0.204,-1.046,9.827,-21.118,4.700
-0.095,0.195,-0.937,19.470,-31.189,6.104

-0.437,0.902,-1.570,-133.179,104.614,-55.908
-0.533,0.788,-1.558,-128.113,58.533,-135.925
-0.673,0.479,-1.561,-102.295,38.452,-163.330
-0.703,0.380,-1.605,-34.180,13.184,-195.068
-0.708,0.295,-1.645,-8.972,1.526,-209.839
-0.723,0.291,-1.653,0.488,-32.715,-247.803
-0.823,0.157,-1.622,-11.230,-62.378,-269.287
-0.870,0.052,-1.601,-25.024,-146.179,-289.185
-0.880,-0.170,-1.523,-19.714,-198.425,-287.964
-0.891,-0.284,-1.458,5.005,-316.162,-278.076
-0.972,-0.494,-1.275,15.076,-377.686,-274.536
-0.996,-0.587,-1.151,19.897,-435.303,-270.813
-0.869,-0.739,-0.870,22.888,-516.724,-250.671
-0.786,-0.780,-0.747,23.743,-538.757,-234.070
-0.707,-0.820,-0.598,20.325,-550.293,-195.862
-0.557,-0.842,-0.333,16.235,-544.434,-175.476
-0.475,-0.816,-0.239,-2.197,-522.827,-128.113
-0.405,-0.702,-0.013,-23.499,-514.771,-101.196
-0.391,-0.664,0.189,-93.201,-508.301,-47.791
-0.240,-0.657,0.599,-124.695,-506.042,-20.325
-0.106,-0.659,0.782,-139.465,-492.065,35.889
0.010,-0.542,1.064,-129.822,-476.257,63.721
0.206,-0.445,1.218,-112.610,-415.222,129.333
0.407,-0.185,1.635,-112.061,-363.220,168.091
0.606,0.064,1.794,-140.930,-218.384,231.689
0.820,0.649,1.990,-172.363,-135.803,244.263
0.827,0.937,2.017,-236.572,46.814,221.619
0.842,1.438,1.753,-260.010,142.517,191.956
0.872,1.636,1.454,-274.658,234.314,154.602
0.939,1.783,1.085,-257.080,397.156,70.374
1.013,1.755,0.340,-214.722,459.290,24.841
0.830,1.539,0.026,-114.197,492.798,-98.999
0.355,1.038,-0.702,-70.251,461.060,-172.424
0.294,0.814,-1.049,39.429,335.144,-294.800
0.142,0.413,-1.688,103.149,263.733,-332.031
0.170,0.251,-1.993,152.466,120.544,-350.220
0.353,-0.155,-2.099,142.273,51.636,-346.313
0.292,-0.395,-1.964,127.930,-10.559,-336.914
0.175,-0.824,-1.530,124.146,-130.371,-291.382
0.159,-0.975,-1.276,139.099,-188.965,-267.822
0.176,-1.033,-1.049,176.331,-279.846,-231.995
0.205,-0.961,-0.707,183.594,-307.129,-214.416
0.215,-0.908,-0.570,133.484,-340.332,-164.795
0.119,-0.931,-0.236,82.153,-349.365,-134.338
0.129,-0.949,-0.030,-40.649,-350.037,-77.637
0.250,-0.997,0.435,-94.666,-340.881,-48.889
0.296,-1.033,0.682,-151.978,-289.917,22.278
0.315,-0.979,1.077,-154.785,-247.559,61.646
0.377,-0.860,1.180,-145.386,-147.278,135.864
0.496,-0.615,1.247,-141.541,-94.666,163.879
0.505,-0.494,1.234,-140.137,-38.147,181.702
0.506,-0.266,1.096,-153.381,74.341,190.369
0.515,-0.200,1.000,-169.617,122.131,187.866
0.512,-0.156,0.892,-190.491,198.120,182.007
0.483,-0.061,0.674,-187.134,229.553,184.387
0.474,0.008,0.588,-162.720,286.682,205.933
0.583,0.229,0.365,-147.278,315.979,218.323
0.616,0.334,0.235,-126.404,381.226,232.300
0.477,0.440,-0.007,-127.747,410.400,228.821
0.362,0.453,-0.122,-135.559,429.871,217.712
0.271,0.440,-0.356,-154.053,425.476,182.678
0.278,0.405,-0.438,-151.123,403.137,161.072
0.302,0.395,-0.511,-112.488,353.271,119.446
0.233,0.476,-0.737,-84.961,339.905,108.032
0.172,0.552,-0.891,-58.838,343.262,99.487
0.065,0.614,-1.097,-63.599,349.121,98.816
0.047,0.584,-1.139,-84.290,350.159,95.093
0.047,0.549,-1.238,-90.759,340.454,87.708
0.008,0.529,-1.293,-87.585,277.222,55.786
-0.102,0.409,-1.380,-76.904,227.600,38.513
-0.140,0.374,-1.399,-60.974,174.377,28.748
-0.160,0.397,-1.392,-32.959,91.492,36.011
-0.060,0.510,-1.365,-33.813,72.571,39.307
-0.007,0.524,-1.358,-60.791,74.280,29.602
-0.009,0.423,-1.310,-74.646,85.510,24.597
-0.033,0.344,-1.283,-75.745,91.980,19.165
-0.063,0.245,-1.245,-62.866,82.947,17.212
-0.063,0.241,-1.232,-29.541,55.420,18.738
-0.056,0.296,-1.219,-17.883,45.593,20.874
-0.054,0.326,-1.226,-13.794,41.016,20.020
-0.070,0.314,-1.226,-17.334,42.236,17.517
-0.082,0.286,-1.207,-20.020,41.626,15.442
-0.093,0.262,-1.183,-17.212,31.494,14.404
-0.089,0.245,-1.128,-11.719,22.400,14.893
-0.064,0.256,-1.098,1.282,3.540,14.587
-0.017,0.280,-1.039,6.042,-1.892,12.329
-0.007,0.290,-1.015,11.902,-2.441,6.958
-0.005,0.315,-0.983,13.062,1.343,5.310
-0.011,0.326,-0.980,11.353,11.230,1.953
-0.037,0.325,-0.983,9.094,14.465,1.221
-0.049,0.323,-0.989,6.226,15.564,2.258
-0.057,0.330,-1.010,0.122,9.766,7.141
-0.054,0.337,-1.017,-2.930,4.517,9.094
-0.052,0.344,-1.016,-9.766,-1.526,9.338
-0.057,0.333,-0.999,-13.123,-0.793,7.874
-0.059,0.313,-0.988,-15.747,3.479,4.395
-0.055,0.285,-0.971,-14.099,5.432,2.747
-0.051,0.283,-0.965,-7.385,8.545,-0.977
-0.050,0.285,-0.963,-3.845,9.766,-3.296
-0.054,0.283,-0.966,0.427,10.498,-7.568
-0.061,0.276,-0.976,0.549,10.193,-8.728
-0.062,0.270,-0.981,-0.977,9.949,-8.667
-0.057,0.255,-0.983,-7.141,10.315,-6.531
-0.052,0.246,-0.977,-10.071,10.864,-5.798
-0.046,0.237,-0.969,-11.597,11.902,-5.493
-0.045,0.236,-0.960,-10.071,12.573,-5.859
-0.055,0.244,-0.967,-6.470,14.709,-7.385
-0.093,0.260,-1.004,-6.104,15.198,-7.202
-0.109,0.265,-1.024,-11.108,12.390,-3.906
-0.120,0.251,-1.030,-16.052,9.766,-2.869
-0.118,0.230,-1.012,-23.315,5.127,-2.991
-0.106,0.193,-0.969,-22.949,4.150,-3.052
-0.104,0.180,-0.957,-14.343,4.700,-3.845
-0.104,0.170,-0.951,-8.118,5.310,-3.906
-0.105,0.177,-0.955,0.671,5.127,-1.831
-0.099,0.195,-0.954,1.709,3.906,-0.671
-0.089,0.198,-0.954,1.343,2.380,0.183
-0.076,0.196,-0.956,1.221,0.977,0.977
-0.062,0.193,-0.953,2.747,1.221,0.854

-0.360,1.114,-1.545,46.936,134.521,-133.423
-0.436,1.074,-1.571,15.198,131.714,-203.430
-0.566,0.860,-1.600,11.108,115.601,-238.159
-0.627,0.771,-1.627,25.696,71.167,-283.569
-0.738,0.680,-1.767,34.119,43.823,-293.701
-0.760,0.631,-1.847,25.757,-24.963,-291.931
-0.770,0.515,-1.904,11.658,-68.481,-282.349
-0.754,0.430,-1.848,-21.240,-167.541,-263.123
-0.748,0.205,-1.636,-36.621,-218.201,-258.484
-0.767,0.056,-1.501,-49.927,-268.616,-258.118
-0.770,-0.314,-1.167,-57.373,-359.558,-259.277
-0.721,-0.445,-1.015,-44.250,-393.372,-254.578
-0.666,-0.527,-0.878,3.479,-437.073,-235.229
-0.507,-0.558,-0.633,25.513,-448.059,-223.450
-0.427,-0.540,-0.526,37.292,-444.702,-199.768
-0.340,-0.453,-0.343,21.851,-437.866,-186.951
-0.327,-0.407,-0.253,-48.401,-436.401,-152.344
-0.244,-0.359,-0.028,-98.633,-442.566,-130.066
-0.189,-0.407,0.164,-188.843,-447.754,-73.792
0.014,-0.538,0.563,-209.290,-439.392,-41.504
0.097,-0.557,0.717,-192.627,-402.405,19.836
0.336,-0.437,0.854,-167.969,-374.512,45.532
0.390,-0.315,0.893,-143.677,-305.969,87.769
0.562,-0.105,1.004,-155.518,-270.386,108.276
0.576,-0.020,1.089,-198.547,-200.012,152.710
0.748,0.154,1.306,-212.708,-162.231,174.499
0.832,0.287,1.373,-215.881,-124.084,190.491
0.826,0.496,1.402,-203.735,-26.489,202.270
0.924,1.014,1.307,-200.134,34.790,198.914
0.927,1.252,1.197,-216.736,154.175,166.809
0.888,1.611,0.904,-229.187,214.600,140.137
0.942,1.701,0.709,-209.229,326.477,70.374
0.957,1.630,0.338,-181.641,369.385,27.466
0.813,1.502,0.123,-155.823,398.743,-21.484
0.439,1.134,-0.463,-97.046,401.916,-131.958
0.339,0.938,-0.783,-52.979,370.605,-188.110
0.301,0.812,-1.077,61.279,273.437,-291.321
0.139,0.661,-1.590,116.577,231.567,-325.684
0.025,0.545,-1.875,153.198,136.536,-333.557
0.064,0.214,-2.146,133.789,63.232,-321.106
0.132,0.001,-2.041,80.566,-89.661,-323.425
0.217,-0.463,-1.591,67.505,-140.686,-333.862
0.199,-0.721,-1.346,87.402,-193.787,-341.064
0.136,-1.086,-0.939,119.507,-215.210,-331.726
0.111,-1.134,-0.813,187.866,-268.433,-293.701
0.057,-1.033,-0.629,185.852,-296.509,-265.076
0.029,-0.976,-0.495,151.489,-323.608,-231.201
0.015,-0.980,-0.084,3.540,-367.493,-157.837
0.147,-1.063,0.206,-84.778,-378.479,-120.972
0.302,-1.141,0.502,-195.312,-351.562,-36.560
0.481,-1.123,0.968,-203.125,-311.401,14.526
0.483,-1.027,1.111,-178.284,-205.811,111.633
0.513,-0.718,1.273,-170.898,-151.062,150.146
0.576,-0.564,1.312,-171.631,-38.635,207.153
0.714,-0.224,1.285,-173.889,20.752,223.633
0.710,-0.049,1.217,-192.688,148.315,234.863
0.753,0.212,0.963,-200.195,208.252,230.652
0.802,0.341,0.801,-196.655,261.536,220.764
0.781,0.558,0.466,-153.259,347.900,197.021
0.652,0.593,0.311,-128.174,380.310,184.021
0.465,0.586,0.164,-103.394,409.729,140.137
0.239,0.474,-0.132,-95.459,401.489,110.291
0.236,0.380,-0.255,-75.623,347.168,56.641
0.348,0.213,-0.465,-63.599,314.941,39.551
0.407,0.145,-0.555,-40.161,273.010,32.471
0.449,-0.014,-0.656,-37.964,259.399,41.199
0.489,-0.077,-0.664,-42.664,246.887,54.871
0.597,-0.146,-0.611,-46.753,221.374,80.811
0.644,-0.145,-0.600,-39.978,209.778,88.074
0.660,-0.117,-0.620,-25.330,196.899,93.384
0.553,-0.029,-0.697,-25.635,194.519,96.802
0.488,0.018,-0.771,-41.931,196.167,107.117
0.397,0.080,-0.916,-54.871,199.768,112.732
0.368,0.086,-0.949,-69.214,201.477,120.666
0.279,0.113,-0.957,-65.186,196.777,121.521
0.228,0.165,-0.977,-37.781,176.514,118.774
0.132,0.284,-1.067,-23.987,161.926,116.272
0.095,0.356,-1.124,-16.846,147.278,111.694
0.056,0.437,-1.184,-22.034,134.705,103.760
0.011,0.566,-1.236,-33.020,135.681,102.356
-0.009,0.597,-1.223,-57.983,131.592,93.933
-0.061,0.616,-1.237,-68.054,118.408,81.970
-0.067,0.588,-1.252,-81.055,76.050,48.279
-0.035,0.441,-1.238,-80.078,60.608,31.616
-0.044,0.376,-1.226,-62.439,60.242,11.353
-0.111,0.378,-1.247,-50.781,69.885,10.559
-0.136,0.404,-1.258,-31.311,81.360,10.559
-0.186,0.423,-1.330,-23.926,77.698,4.211
-0.214,0.399,-1.360,-17.883,68.420,-3.845
-0.217,0.372,-1.367,-10.193,38.269,-3.662
-0.137,0.342,-1.308,-9.460,19.958,4.150
-0.082,0.333,-1.250,-10.254,-10.681,13.062
0.002,0.325,-1.137,-9.277,-17.273,11.597
0.018,0.325,-1.107,-1.587,-12.085,3.845
0.022,0.317,-1.097,2.380,-4.578,-0.793
0.015,0.308,-1.100,3.967,8.179,-8.972
-0.024,0.285,-1.106,1.038,9.399,-9.766
-0.031,0.272,-1.105,-13.123,0.488,-1.587
0.000,0.227,-1.064,-21.240,-5.127,2.075
0.022,0.202,-1.034,-26.367,-8.728,2.930
0.032,0.175,-1.004,-22.034,-10.498,0.244
0.029,0.160,-0.962,-13.794,-10.742,-0.427
0.028,0.174,-0.948,2.930,-10.803,0.305
0.018,0.210,-0.930,7.202,-9.705,0.488
0.007,0.221,-0.929,5.737,-5.615,0.000
-0.011,0.203,-0.932,2.808,-3.540,-0.305
-0.018,0.189,-0.934,2.075,-2.014,0.610
-0.010,0.193,-0.944,4.089,-3.601,1.892
0.010,0.203,-0.937,6.348,-5.859,3.174
0.049,0.241,-0.917,9.949,-7.874,4.150
0.078,0.260,-0.917,9.094,-7.629,4.211
0.099,0.277,-0.925,0.427,-3.418,2.136
0.068,0.280,-0.956,-5.371,-0.305,-0.854
0.047,0.261,-0.976,-13.062,6.287,-5.981
0.019,0.230,-1.031,-13.855,11.108,-6.592
0.003,0.224,-1.057,-14.709,18.311,-5.249
-0.019,0.196,-1.069,-15.137,17.090,-4.578
-0.023,0.174,-1.053,-11.963,7.263,-5.676
-0.020,0.150,-1.011,-8.850,2.380,-6.470

-0.215,0.892,-1.554,37.903,69.641,-35.339
-0.264,0.900,-1.626,74.280,64.941,-90.820
-0.329,0.953,-1.806,84.778,50.659,-123.169
-0.375,0.924,-1.868,97.473,-9.338,-205.811
-0.473,0.806,-1.906,108.948,-44.556,-241.516
-0.421,0.785,-1.926,135.559,-116.333,-304.749
-0.389,0.729,-1.832,141.724,-154.785,-345.520
-0.389,0.647,-1.726,136.353,-214.416,-423.096
-0.351,0.354,-1.482,125.977,-228.271,-448.059
-0.335,0.171,-1.363,114.319,-230.164,-460.083
-0.348,-0.038,-1.240,99.365,-225.586,-436.096
-0.419,-0.052,-1.210,79.163,-239.746,-407.227
-0.528,-0.089,-1.153,-12.268,-305.420,-339.050
-0.493,-0.276,-0.925,-70.862,-340.576,-306.091
-0.423,-0.495,-0.741,-132.629,-373.413,-249.573
-0.320,-0.899,-0.399,-125.061,-370.728,-225.830
-0.291,-0.942,-0.295,-80.139,-359.070,-178.467
-0.326,-0.819,-0.144,-73.181,-360.168,-153.503
-0.297,-0.722,-0.052,-127.502,-378.540,-103.333
-0.251,-0.669,0.304,-178.955,-390.442,-77.515
-0.156,-0.736,0.536,-250.549,-391.663,-15.869
0.056,-0.804,0.878,-244.507,-374.451,21.362
0.161,-0.730,0.973,-177.246,-317.200,98.450
0.279,-0.406,1.096,-150.452,-284.485,132.874
0.349,-0.231,1.177,-153.931,-219.421,185.364
0.633,0.071,1.379,-170.715,-186.157,201.843
0.696,0.215,1.465,-197.266,-101.013,214.294
0.810,0.592,1.580,-206.543,-43.823,211.914
0.886,0.791,1.581,-216.492,21.179,204.773
0.938,0.986,1.519,-239.136,173.279,180.786
0.926,1.370,1.170,-241.760,256.348,163.086
0.928,1.561,0.912,-195.740,407.776,110.657
0.890,1.686,0.417,-150.513,462.952,74.646
0.679,1.571,0.160,-93.628,491.272,-41.504
0.256,1.113,-0.456,-68.970,458.923,-118.591
0.224,0.872,-0.755,-20.630,404.236,-190.735
0.338,0.640,-1.330,121.277,293.823,-293.579
0.230,0.539,-1.666,169.495,255.493,-321.655
0.139,0.380,-1.990,137.512,147.461,-298.828
0.293,-0.032,-2.213,73.853,64.636,-261.108
0.410,-0.307,-2.004,-1.953,-93.201,-221.802
0.495,-0.772,-1.365,0.854,-139.954,-222.473
0.488,-0.935,-1.062,77.332,-181.335,-223.633
0.427,-1.025,-0.650,139.709,-190.430,-215.332
0.388,-0.946,-0.573,239.380,-216.858,-187.317
0.323,-0.670,-0.541,236.755,-240.784,-166.138
0.377,-0.561,-0.458,112.549,-295.837,-109.253
0.398,-0.635,-0.049,33.264,-308.472,-80.078
0.493,-0.714,0.198,-85.876,-286.560,-31.860
0.529,-0.746,0.539,-112.915,-261.169,-7.080
0.578,-0.697,0.641,-123.779,-231.750,19.836
0.532,-0.577,0.861,-124.390,-176.453,74.158
0.550,-0.497,0.956,-124.817,-146.606,100.220
0.678,-0.384,0.991,-138.062,-89.478,140.686
0.794,-0.180,1.020,-156.677,-57.983,152.161
0.849,-0.134,1.031,-206.543,26.611,154.785
0.833,-0.088,0.991,-222.473,74.890,149.841
0.775,-0.080,0.935,-231.201,161.682,147.156
0.661,-0.070,0.795,-223.022,197.144,153.198
0.641,-0.032,0.713,-174.866,263.245,169.250
0.605,0.131,0.466,-138.306,298.828,171.814
0.572,0.200,0.313,-104.187,336.365,169.861
0.512,0.229,0.170,-72.510,407.471,160.767
0.272,0.217,-0.034,-75.623,437.500,155.334
0.157,0.234,-0.156,-76.782,477.051,142.456
-0.027,0.292,-0.501,-64.575,468.628,127.808
-0.095,0.332,-0.661,-21.851,371.216,81.482
-0.069,0.457,-0.928,-5.249,305.115,63.049
0.041,0.520,-1.042,-15.320,220.398,55.603
0.241,0.533,-1.128,-43.823,210.632,58.167
0.294,0.475,-1.106,-78.491,214.661,59.998
0.242,0.323,-1.030,-122.864,239.380,59.509
0.151,0.298,-1.042,-122.253,247.131,55.725
0.023,0.314,-1.078,-83.862,215.576,36.560
-0.154,0.426,-1.216,-55.664,180.542,28.442
-0.148,0.514,-1.320,-26.184,120.239,34.302
-0.018,0.630,-1.451,-37.537,106.750,41.077
0.026,0.591,-1.466,-87.891,109.192,36.377
0.026,0.356,-1.430,-105.957,114.258,28.015
0.004,0.239,-1.387,-93.323,107.544,16.296
-0.051,0.138,-1.304,-65.674,93.018,14.587
-0.025,0.178,-1.299,-33.142,73.181,16.113
0.012,0.259,-1.301,14.404,35.889,22.705
0.073,0.408,-1.275,19.409,27.161,23.560
0.094,0.435,-1.282,-0.854,33.203,16.724
0.068,0.374,-1.315,-17.029,39.612,10.071
0.039,0.307,-1.300,-35.950,36.133,-3.113
-0.011,0.177,-1.237,-32.593,25.513,-4.395
-0.003,0.156,-1.219,-7.996,-3.601,12.207
0.067,0.202,-1.146,7.141,-15.381,21.851
0.090,0.253,-1.108,24.353,-22.705,24.048
0.102,0.333,-1.062,22.522,-20.752,20.691
0.099,0.346,-1.044,15.808,-17.456,18.250
0.097,0.342,-1.024,-1.465,-10.498,15.930
0.099,0.310,-0.983,-7.324,-7.446,14.038
0.098,0.298,-0.970,-6.897,-4.578,8.606
0.086,0.296,-0.969,-3.235,-5.066,6.226
0.078,0.298,-0.979,0.122,-6.714,4.944
0.072,0.309,-0.996,-2.136,-6.958,5.798
0.074,0.304,-0.990,-10.620,-5.859,5.432
0.078,0.273,-0.970,-12.756,-4.822,3.235
0.077,0.254,-0.960,-12.207,-4.211,0.793
0.080,0.231,-0.944,-4.456,-3.784,-1.892
0.084,0.232,-0.939,1.221,-3.418,-2.502
0.087,0.243,-0.935,9.399,-1.953,-3.235
0.090,0.271,-0.942,9.216,-1.160,-3.174
0.087,0.275,-0.953,0.000,0.488,-3.418
0.073,0.252,-0.976,-6.775,0.427,-3.601
0.071,0.227,-0.975,-14.709,-1.709,-2.441
0.079,0.201,-0.960,-13.550,-2.136,-1.648
0.081,0.201,-0.951,-4.822,-0.671,-1.526
0.070,0.217,-0.955,0.061,0.793,-1.892
0.060,0.230,-0.970,3.296,1.892,-2.258
0.054,0.236,-0.986,2.625,1.221,-2.686
0.054,0.234,-0.985,0.427,0.916,-2.808
0.056,0.232,-0.982,-5.371,1.343,-1.709
0.068,0.215,-0.966,-8.301,1.160,-0.793
0.075,0.207,-0.961,-9.338,2.869,-0.183
0.071,0.207,-0.962,-7.385,5.005,-0.305

-0.253,0.789,-1.564,55.420,77.087,-158.081
-0.317,0.773,-1.607,67.200,84.839,-201.721
-0.428,0.697,-1.701,69.824,78.064,-223.755
-0.460,0.666,-1.733,66.406,31.860,-273.743
-0.578,0.550,-1.735,60.181,-7.324,-297.791
-0.588,0.452,-1.740,50.842,-95.276,-317.139
-0.554,0.250,-1.757,49.255,-142.212,-312.622
-0.577,0.158,-1.708,45.227,-194.031,-302.124
-0.679,-0.073,-1.516,11.108,-309.814,-276.245
-0.694,-0.219,-1.358,-17.456,-366.699,-260.925
-0.676,-0.375,-1.153,-49.622,-451.904,-222.717
-0.466,-0.606,-0.719,-46.082,-476.440,-202.942
-0.385,-0.673,-0.523,-15.564,-488.953,-165.161
-0.249,-0.617,-0.217,0.977,-479.858,-147.034
-0.248,-0.524,-0.096,-7.202,-460.083,-109.985
-0.282,-0.392,0.220,-41.138,-458.557,-90.454
-0.271,-0.400,0.452,-131.409,-472.534,-45.349
-0.060,-0.470,0.914,-160.767,-479.736,-19.104
0.048,-0.479,1.099,-164.551,-461.792,43.335
0.471,-0.385,1.359,-146.667,-432.190,76.294
0.601,-0.270,1.471,-106.445,-339.294,134.705
0.838,0.130,1.610,-96.619,-280.151,152.466
0.950,0.379,1.635,-110.657,-140.076,155.579
1.117,0.861,1.540,-132.568,-64.209,143.433
1.075,1.074,1.401,-157.593,13.672,128.052
1.006,1.248,1.212,-194.519,164.551,95.642
1.021,1.519,0.727,-192.749,231.262,73.914
1.084,1.591,0.456,-128.235,334.473,3.845
0.956,1.407,-0.002,-80.750,362.061,-45.898
0.800,1.236,-0.236,-0.488,355.530,-174.927
0.564,0.915,-0.695,42.358,326.294,-242.004
0.441,0.756,-0.886,140.442,237.244,-346.497
0.260,0.454,-1.351,162.354,182.678,-367.981
0.309,0.277,-1.537,153.503,123.169,-364.685
0.359,0.074,-1.622,100.525,-3.662,-316.711
0.331,-0.348,-1.454,67.444,-66.101,-290.039
0.278,-0.572,-1.243,24.231,-167.114,-258.240
0.257,-0.921,-0.835,27.954,-200.378,-249.512
0.278,-1.009,-0.674,67.261,-239.136,-222.717
0.230,-1.056,-0.432,84.106,-252.319,-200.195
0.215,-1.015,-0.338,64.880,-290.283,-139.771
0.096,-1.036,0.068,25.696,-309.204,-110.657
0.147,-1.068,0.321,-71.838,-321.655,-62.134
0.280,-1.139,0.822,-105.713,-312.500,-35.095
0.396,-1.116,0.988,-119.446,-291.016,-1.526
0.500,-0.916,1.178,-105.713,-208.130,77.820
0.584,-0.755,1.219,-98.511,-152.405,113.342
0.726,-0.593,1.237,-114.563,-48.645,152.527
0.739,-0.369,1.291,-131.775,-2.686,155.579
0.749,-0.315,1.282,-151.184,86.243,144.653
0.785,-0.223,1.154,-144.592,125.732,138.977
0.820,-0.154,1.039,-104.980,191.040,134.888
0.887,0.067,0.701,-86.060,218.628,134.766
0.911,0.195,0.486,-70.679,271.973,136.047
0.984,0.380,0.097,-68.298,299.500,135.742
0.946,0.409,-0.064,-55.542,323.853,132.690
0.800,0.385,-0.213,8.240,331.909,90.698
0.418,0.371,-0.419,39.124,307.251,44.434
0.265,0.403,-0.421,35.339,219.299,-57.983
0.242,0.270,-0.323,1.282,174.561,-93.811
0.308,0.035,-0.255,-74.341,115.295,-114.197
0.434,-0.562,-0.079,-91.492,105.896,-99.976
0.489,-0.769,-0.030,-61.890,131.958,-46.265
0.482,-0.864,-0.009,-30.273,156.921,-13.611
0.413,-0.796,-0.022,16.602,195.251,66.223
0.407,-0.590,-0.083,28.625,205.017,109.680
0.456,-0.474,-0.132,35.095,211.731,148.254
0.501,-0.353,-0.187,24.353,232.361,202.393
0.589,-0.099,-0.358,5.798,252.563,220.703
0.582,0.018,-0.454,-44.800,312.744,244.873
0.382,0.195,-0.626,-68.054,342.285,247.803
0.269,0.224,-0.707,-99.548,362.854,217.773
0.104,0.241,-0.923,-94.666,350.159,191.162
0.031,0.264,-1.057,-39.185,297.607,158.142
-0.071,0.424,-1.326,-9.521,274.109,156.250
-0.096,0.531,-1.448,7.080,257.690,156.311
-0.145,0.680,-1.595,-1.282,227.478,137.390
-0.171,0.686,-1.593,-15.076,205.078,120.544
-0.176,0.664,-1.571,-23.682,152.588,94.177
-0.113,0.602,-1.512,-13.428,127.808,85.510
-0.077,0.595,-1.487,12.878,86.914,69.885
-0.054,0.617,-1.433,17.090,73.364,62.622
-0.056,0.615,-1.403,5.066,59.265,47.729
-0.079,0.527,-1.357,-3.967,55.359,39.734
-0.093,0.461,-1.331,-10.193,44.434,30.762
-0.094,0.391,-1.268,-5.798,35.461,30.090
-0.082,0.390,-1.226,8.972,14.526,28.198
-0.049,0.418,-1.132,15.137,6.226,25.757
-0.035,0.433,-1.091,18.311,1.099,22.766
-0.024,0.443,-1.060,15.320,2.014,16.602
-0.036,0.435,-1.036,10.010,7.263,13.550
-0.053,0.413,-1.031,-1.770,17.639,8.911
-0.072,0.363,-1.005,-4.761,18.921,8.179
-0.066,0.350,-0.989,-2.869,13.123,7.690
-0.041,0.340,-0.966,0.061,9.155,6.958
-0.033,0.340,-0.958,4.822,6.592,4.944
-0.027,0.337,-0.958,5.066,8.118,3.967
-0.036,0.335,-0.967,3.235,10.559,3.357
-0.051,0.320,-0.982,-5.798,12.634,4.150
-0.048,0.303,-0.980,-10.132,10.925,5.066
-0.044,0.290,-0.977,-10.681,5.859,6.531
-0.036,0.290,-0.980,-8.301,3.662,6.287
-0.038,0.299,-0.988,-3.967,1.526,4.395
-0.061,0.310,-1.010,-2.869,0.977,3.357
-0.063,0.305,-1.008,-0.916,-2.319,2.136
-0.050,0.300,-0.990,1.770,-4.028,2.014
-0.048,0.309,-0.985,6.226,-5.615,2.563
-0.035,0.323,-0.974,5.615,-6.226,2.930
-0.026,0.317,-0.962,2.319,-6.104,2.563
-0.024,0.314,-0.948,1.404,-4.883,2.258
-0.029,0.323,-0.951,0.305,-3.845,2.075
-0.034,0.326,-0.956,-2.869,-3.845,0.610
-0.041,0.308,-0.958,-3.296,-3.906,-0.488
-0.041,0.301,-0.957,-0.916,-2.625,-1.404
-0.039,0.305,-0.961,0.000,-1.587,-1.282
-0.040,0.307,-0.964,-1.282,-0.854,-1.343
-0.043,0.302,-0.965,-2.625,-1.465,-1.709
-0.042,0.295,-0.964,-3.784,-4.028,-2.930
-0.032,0.282,-0.959,-3.357,-5.066,-3.479

0.786,1.698,-0.292,88.684,-47.424,44.556
0.755,1.738,-0.385,2.075,80.078,-54.260
0.593,1.450,-0.525,-26.978,127.258,-101.257
0.484,1.199,-0.588,-2.563,190.002,-187.500
0.242,0.712,-0.895,39.185,205.444,-239.746
0.094,0.537,-1.112,156.982,190.979,-348.816
-0.192,0.394,-1.525,211.853,157.715,-388.061
-0.287,0.392,-1.638,247.681,106.812,-418.579
-0.501,0.377,-1.795,244.324,-27.954,-465.454
-0.579,0.247,-1.847,201.355,-102.661,-471.130
-0.585,0.023,-1.808,77.332,-254.028,-430.664
-0.479,-0.535,-1.434,35.767,-316.650,-398.560
-0.459,-0.786,-1.122,31.189,-392.456,-343.689
-0.291,-1.115,-0.651,60.486,-403.625,-319.702
-0.194,-1.163,-0.538,129.944,-393.677,-265.930
-0.209,-1.022,-0.362,141.724,-386.597,-236.267
-0.210,-0.866,-0.292,66.956,-402.039,-182.800
-0.293,-0.769,0.122,-17.090,-421.631,-157.776
-0.197,-0.871,0.445,-181.335,-430.908,-101.868
0.070,-1.047,1.039,-218.811,-404.724,-64.209
0.197,-1.027,1.245,-209.656,-306.946,31.738
0.413,-0.797,1.539,-190.796,-248.962,82.581
0.550,-0.636,1.627,-180.359,-188.477,130.066
0.608,-0.455,1.674,-184.387,-60.547,199.036
0.892,-0.120,1.638,-189.697,7.141,213.257
0.908,0.079,1.568,-200.012,133.362,201.721
0.946,0.447,1.364,-212.708,195.557,190.247
0.984,0.623,1.209,-223.755,317.505,167.053
1.055,0.962,0.801,-204.468,373.596,153.503
1.008,1.089,0.564,-124.207,465.210,111.755
0.589,1.124,-0.030,-67.017,485.290,69.153
0.395,1.079,-0.404,4.822,475.281,6.104
0.317,1.073,-0.776,182.373,368.652,-147.400
0.112,1.256,-1.465,253.296,291.016,-208.374
0.128,1.336,-1.875,215.393,125.305,-228.210
0.524,0.933,-2.210,104.614,43.884,-208.252
0.695,0.424,-1.960,-85.388,-59.204,-203.064
0.712,-0.545,-1.288,-82.947,-75.256,-213.867
0.664,-0.778,-1.057,87.280,-93.140,-229.126
0.567,-0.747,-0.813,185.791,-103.882,-229.736
0.472,-0.589,-0.807,252.136,-137.878,-194.153
0.383,-0.378,-0.798,194.763,-169.617,-156.006
0.433,-0.487,-0.625,22.095,-220.642,-91.980
0.610,-0.793,-0.180,-37.537,-220.276,-79.224
0.556,-0.831,-0.040,-70.435,-208.191,-71.594
0.495,-0.786,0.171,-119.568,-178.772,-40.527
0.539,-0.770,0.272,-154.846,-171.875,-14.709
0.533,-0.785,0.405,-210.327,-151.184,41.077
0.505,-0.770,0.676,-220.947,-128.784,68.726
0.592,-0.743,0.783,-203.613,-75.745,124.329
0.635,-0.630,0.930,-177.307,-42.725,149.170
0.644,-0.531,0.952,-120.300,46.387,190.918
0.607,-0.302,0.886,-104.370,96.375,206.543
0.606,-0.201,0.818,-107.666,185.425,222.839
0.579,-0.083,0.668,-116.882,222.351,225.586
0.541,-0.045,0.582,-121.582,256.653,227.539
0.352,0.029,0.395,-105.103,322.876,237.610
0.241,0.091,0.281,-87.769,354.248,244.995
0.160,0.180,0.124,-50.476,402.954,250.671
0.137,0.395,-0.298,-33.997,418.945,243.774
0.095,0.520,-0.496,-25.757,438.293,216.003
-0.049,0.824,-0.872,-48.828,443.420,202.881
-0.155,0.918,-1.005,-132.996,425.781,184.570
-0.264,0.897,-1.156,-165.894,388.916,169.922
-0.267,0.839,-1.208,-167.664,267.517,123.169
-0.163,0.756,-1.327,-140.686,208.984,102.051
-0.113,0.753,-1.368,-105.652,165.710,87.830
-0.047,0.776,-1.441,-62.744,128.906,68.970
0.053,0.741,-1.544,-71.228,125.305,59.509
0.066,0.647,-1.523,-110.229,120.117,46.143
0.037,0.447,-1.411,-116.943,114.197,44.250
0.009,0.389,-1.364,-90.637,83.801,40.405
-0.009,0.339,-1.279,-65.735,61.340,35.400
-0.006,0.348,-1.246,-17.578,27.771,28.870
-0.002,0.425,-1.226,-2.014,22.888,29.785
-0.002,0.466,-1.231,3.601,24.109,31.433
-0.020,0.489,-1.225,-10.437,30.334,31.494
-0.025,0.467,-1.213,-21.118,30.273,30.212
-0.024,0.433,-1.195,-32.288,21.851,26.489
-0.009,0.350,-1.133,-30.701,15.259,24.048
0.011,0.320,-1.100,-17.822,3.601,19.653
0.050,0.297,-1.047,-10.620,0.610,18.066
0.055,0.296,-1.029,1.587,0.732,15.991
0.064,0.319,-1.020,6.165,2.136,15.564
0.063,0.332,-1.021,8.423,4.272,13.794
0.048,0.344,-1.026,6.042,4.395,12.695
0.042,0.347,-1.025,2.197,3.418,12.268
0.030,0.350,-1.019,-6.042,-2.625,12.207
0.023,0.333,-0.998,-9.460,-7.812,11.719
0.034,0.320,-0.981,-11.841,-15.381,10.925
0.060,0.313,-0.948,-10.437,-14.832,10.437
0.064,0.316,-0.937,-5.066,-6.653,8.240
0.051,0.322,-0.936,-1.953,-1.160,6.958
0.034,0.323,-0.938,2.441,6.409,5.005
0.012,0.335,-0.955,3.235,7.080,4.578
0.012,0.343,-0.964,2.502,5.798,4.272
0.013,0.343,-0.965,-1.770,1.892,3.540
0.015,0.337,-0.964,-3.967,0.916,3.418
0.018,0.335,-0.965,-8.118,0.732,2.930
0.015,0.320,-0.973,-10.132,0.793,2.075
0.015,0.305,-0.973,-11.475,0.000,0.366
0.022,0.286,-0.974,-10.071,-0.793,-0.366
0.026,0.279,-0.977,-4.761,-0.732,-2.319
0.030,0.261,-0.977,-1.709,0.244,-3.235
0.030,0.256,-0.976,1.038,1.404,-3.723
0.027,0.263,-0.981,2.502,1.953,-1.587
0.028,0.263,-0.977,0.061,0.854,0.427
0.034,0.258,-0.968,-5.981,-1.038,2.075
0.031,0.253,-0.958,-6.775,-1.038,1.892
0.024,0.256,-0.960,-4.822,-0.793,1.526
0.025,0.257,-0.956,-3.479,-0.793,1.404
0.029,0.261,-0.953,-1.648,0.977,1.099
0.020,0.272,-0.959,-1.770,2.563,1.343
0.018,0.274,-0.963,-4.272,4.517,2.319
0.013,0.274,-0.965,-5.310,4.700,2.075
0.005,0.276,-0.968,-5.737,4.211,1.221
-0.001,0.278,-0.975,-6.042,0.549,-0.549
-0.003,0.270,-0.975,-6.165,-1.831,-1.221
0.004,0.261,-0.970,-4.211,-3.296,-1.282

-0.126,1.024,-1.528,20.569,64.819,-136.780
-0.211,0.952,-1.620,0.854,59.326,-196.411
-0.410,0.658,-1.784,-3.174,46.509,-216.431
-0.449,0.498,-1.829,21.179,-12.817,-240.173
-0.454,0.363,-1.804,39.246,-55.298,-248.779
-0.446,0.359,-1.771,51.941,-149.536,-265.930
-0.437,0.300,-1.703,40.527,-194.885,-274.719
-0.446,0.191,-1.616,21.606,-235.779,-282.227
-0.438,-0.050,-1.368,-16.113,-299.194,-280.762
-0.434,-0.151,-1.226,-28.259,-326.782,-272.217
-0.430,-0.240,-1.070,-38.879,-381.958,-250.732
-0.383,-0.357,-0.752,-38.391,-404.724,-238.464
-0.321,-0.408,-0.590,-30.273,-429.382,-212.830
-0.224,-0.519,-0.302,-23.376,-431.457,-200.073
-0.154,-0.551,-0.180,-8.606,-426.941,-172.363
-0.124,-0.549,0.074,-3.662,-421.387,-154.785
-0.090,-0.491,0.171,-17.456,-404.236,-115.845
-0.041,-0.344,0.357,-46.082,-395.569,-96.008
-0.002,-0.343,0.499,-138.733,-381.042,-51.331
0.187,-0.479,0.840,-175.232,-371.216,-24.109
0.279,-0.521,1.003,-177.612,-332.581,39.673
0.510,-0.461,1.261,-152.893,-303.101,72.144
0.651,-0.363,1.345,-96.558,-220.337,113.525
0.772,-0.059,1.428,-84.167,-169.067,117.310
0.902,0.036,1.459,-93.750,-111.511,116.516
0.956,0.095,1.479,-148.987,4.028,108.093
0.940,0.187,1.477,-175.842,64.392,106.445
0.982,0.246,1.414,-195.740,189.941,109.985
1.136,0.487,1.117,-178.467,251.160,107.422
1.181,0.612,0.890,-102.661,361.572,85.327
1.086,0.741,0.368,-62.378,409.119,68.787
0.904,0.750,0.068,-5.798,468.811,4.211
0.515,0.754,-0.599,22.217,463.379,-47.363
0.355,0.730,-0.903,67.993,424.255,-108.154
0.251,0.710,-1.156,186.035,263.855,-235.046
0.109,0.654,-1.712,219.116,175.293,-263.367
0.263,0.550,-1.978,160.889,28.870,-202.454
0.610,0.074,-1.896,98.633,-33.508,-168.518
0.651,-0.198,-1.594,10.071,-120.422,-156.311
0.621,-0.583,-0.979,9.949,-146.240,-160.461
0.594,-0.678,-0.732,93.872,-189.331,-163.086
0.577,-0.704,-0.406,147.400,-208.191,-161.316
0.573,-0.615,-0.331,187.134,-224.182,-156.860
0.555,-0.375,-0.242,184.937,-248.596,-123.047
0.596,-0.340,-0.133,128.784,-255.981,-97.412
0.629,-0.356,0.027,-36.255,-250.671,-52.185
0.709,-0.500,0.401,-107.910,-237.976,-37.109
0.716,-0.571,0.577,-175.842,-202.026,-9.644
0.719,-0.568,0.809,-173.218,-179.443,12.146
0.731,-0.488,0.868,-168.884,-121.582,79.773
0.920,-0.276,0.970,-190.735,-92.712,115.479
0.985,-0.184,1.070,-251.892,-13.794,157.959
1.119,-0.016,1.179,-267.334,37.292,160.706
1.124,0.107,1.135,-244.080,142.212,145.203
1.103,0.441,0.819,-210.999,192.200,135.193
1.100,0.655,0.553,-172.485,242.798,125.061
1.065,0.849,0.251,-111.938,339.416,90.027
0.656,0.882,-0.333,-92.712,360.718,54.504
0.413,0.672,-0.566,-22.217,290.955,-64.331
0.353,0.282,-0.856,55.176,216.858,-127.136
0.452,0.225,-0.960,238.953,73.181,-218.506
0.604,0.258,-1.310,290.710,19.714,-221.252
0.691,0.203,-1.437,280.151,-25.024,-188.721
0.893,-0.184,-1.186,134.399,-104.126,-111.389
0.911,-0.410,-0.911,64.209,-131.348,-97.656
0.893,-0.594,-0.639,20.630,-161.255,-93.750
0.811,-0.816,-0.187,46.814,-168.030,-88.196
0.770,-0.832,-0.028,126.465,-165.039,-62.256
0.771,-0.646,0.138,155.701,-159.729,-41.382
0.737,-0.553,0.202,146.057,-137.207,17.029
0.708,-0.461,0.356,100.586,-116.943,41.626
0.794,-0.410,0.414,-6.348,-70.374,65.247
0.795,-0.396,0.511,-40.161,-46.143,72.632
0.734,-0.418,0.552,-68.420,7.874,89.478
0.627,-0.434,0.590,-68.481,32.532,99.792
0.596,-0.396,0.572,-63.416,53.528,111.267
0.572,-0.333,0.528,-63.416,92.163,137.695
0.554,-0.247,0.416,-77.637,114.563,151.184
0.605,-0.231,0.362,-117.187,166.321,172.852
0.743,-0.217,0.267,-131.409,192.688,181.824
0.736,-0.215,0.238,-139.343,242.554,204.529
0.592,-0.204,0.194,-132.019,265.320,219.543
0.485,-0.170,0.150,-98.511,301.697,249.390
0.351,0.038,-0.051,-80.383,314.331,259.705
0.343,0.202,-0.204,-69.153,323.364,263.672
0.361,0.387,-0.379,-82.336,333.557,251.038
0.299,0.674,-0.665,-107.056,337.769,240.784
0.205,0.765,-0.775,-169.800,342.468,219.055
-0.032,0.823,-0.964,-192.505,326.782,202.454
-0.103,0.801,-1.027,-204.285,246.216,155.273
-0.108,0.748,-1.197,-191.895,204.529,132.568
-0.049,0.700,-1.299,-135.986,158.264,89.722
-0.012,0.625,-1.431,-100.525,151.672,70.007
-0.045,0.646,-1.454,-69.031,148.743,54.626
-0.084,0.694,-1.458,-48.767,137.817,38.330
-0.106,0.747,-1.427,-61.707,129.211,34.302
-0.109,0.724,-1.391,-91.309,111.389,24.902
-0.103,0.602,-1.314,-96.497,101.379,16.113
-0.085,0.508,-1.266,-79.163,81.970,-6.470
-0.102,0.346,-1.201,-57.800,77.271,-13.611
-0.129,0.333,-1.237,-20.935,76.416,-4.700
-0.183,0.395,-1.321,-15.564,73.792,6.775
-0.193,0.413,-1.320,-25.574,53.406,16.113
-0.163,0.366,-1.253,-30.518,37.964,12.573
-0.125,0.327,-1.208,-27.954,23.315,8.118
-0.068,0.306,-1.137,-2.991,7.385,2.991
-0.056,0.316,-1.114,9.338,5.737,0.732
-0.051,0.322,-1.093,17.578,7.263,-3.967
-0.048,0.303,-1.045,14.954,8.240,-5.493
-0.049,0.292,-1.033,6.714,7.751,-5.920
-0.048,0.283,-1.037,1.404,5.554,-4.578
-0.044,0.265,-1.024,-5.920,-0.549,-0.183
-0.031,0.220,-0.977,-4.272,-3.296,1.404
-0.016,0.222,-0.962,5.493,-7.385,2.502
0.005,0.263,-0.950,8.972,-7.263,2.808
0.005,0.283,-0.948,10.437,-5.493,3.235
-0.002,0.299,-0.947,8.667,-3.418,3.174
-0.010,0.321,-0.953,6.042,-4.028,2.319
-0.009,0.323,-0.954,1.587,-2.686,0.000

-0.249,1.066,-1.602,4.883,74.219,-64.392
-0.382,1.114,-1.712,0.549,85.876,-126.526
-0.575,1.132,-1.891,4.578,79.041,-162.476
-0.658,1.101,-1.937,17.883,26.611,-234.802
-0.797,0.984,-1.948,26.001,-17.517,-263.184
-0.829,0.911,-1.939,31.128,-133.728,-286.621
-0.808,0.709,-1.876,23.010,-200.195,-286.438
-0.785,0.543,-1.770,-9.827,-334.534,-285.339
-0.774,0.176,-1.399,-26.062,-393.799,-286.682
-0.732,-0.018,-1.138,-33.325,-441.101,-286.499
-0.603,-0.262,-0.735,-6.287,-491.760,-280.457
-0.508,-0.330,-0.592,17.883,-498.901,-277.954
-0.465,-0.370,-0.459,52.795,-486.816,-268.250
-0.359,-0.387,-0.256,57.983,-471.313,-259.216
-0.357,-0.408,-0.155,39.246,-448.303,-238.037
-0.329,-0.503,0.064,16.357,-448.059,-227.112
-0.299,-0.581,0.188,-43.335,-456.360,-199.707
-0.226,-0.721,0.476,-72.266,-457.031,-182.495
-0.121,-0.797,0.653,-114.624,-443.420,-140.930
-0.012,-0.932,1.014,-122.925,-426.575,-116.272
0.174,-0.963,1.165,-115.479,-363.770,-51.819
0.405,-0.889,1.384,-107.178,-318.726,-11.292
0.499,-0.809,1.472,-100.220,-211.792,76.660
0.740,-0.625,1.598,-98.206,-155.823,117.371
0.763,-0.494,1.633,-93.262,-45.593,178.894
0.808,-0.200,1.655,-97.351,11.597,199.219
0.841,-0.053,1.629,-103.882,70.862,211.731
0.867,0.103,1.565,-101.440,190.979,216.248
0.881,0.515,1.333,-88.745,248.718,212.158
0.887,0.748,1.175,-54.871,357.056,197.388
0.852,1.202,0.744,-31.433,407.776,184.509
0.770,1.355,0.464,55.115,473.999,130.432
0.378,1.441,-0.208,105.408,465.576,72.449
0.296,1.499,-0.555,140.503,426.331,-6.409
0.376,1.586,-0.900,157.654,323.730,-159.058
0.538,1.526,-1.519,137.146,290.161,-217.468
0.456,1.301,-1.732,10.986,240.356,-296.509
0.250,0.494,-1.804,-57.373,201.965,-314.392
0.191,0.079,-1.712,-68.787,93.811,-321.228
0.054,-0.439,-1.473,-16.052,32.959,-311.890
0.056,-0.514,-1.389,89.355,-84.656,-264.465
0.107,-0.485,-1.228,107.666,-138.550,-231.934
0.143,-0.485,-1.109,77.271,-215.942,-169.678
0.222,-0.597,-0.773,45.593,-238.403,-146.301
0.210,-0.682,-0.578,15.930,-254.944,-128.174
0.321,-0.779,-0.210,-29.846,-275.208,-96.863
0.305,-0.802,-0.019,-46.814,-281.555,-79.590
0.339,-0.809,0.171,-85.266,-283.813,-38.757
0.427,-0.831,0.576,-111.816,-279.419,-15.747
0.510,-0.867,0.795,-145.020,-249.695,29.358
0.575,-0.915,1.178,-138.062,-219.482,50.598
0.670,-0.894,1.296,-85.205,-132.812,89.844
0.868,-0.746,1.383,-56.396,-78.064,107.178
0.848,-0.628,1.327,-37.781,44.434,136.292
0.678,-0.415,1.058,-57.678,101.624,148.499
0.630,-0.359,0.912,-88.379,147.034,158.691
0.626,-0.243,0.601,-137.939,212.952,176.575
0.634,-0.176,0.439,-156.311,244.080,186.462
0.631,-0.119,0.278,-191.589,312.927,207.275
0.570,-0.062,-0.030,-197.388,347.412,216.309
0.531,-0.047,-0.174,-158.875,400.085,228.760
0.312,-0.003,-0.409,-125.854,413.330,231.262
0.183,0.071,-0.531,-82.397,406.738,225.220
0.052,0.251,-0.775,-77.698,378.662,214.722
0.073,0.299,-0.845,-92.957,293.335,178.589
0.266,0.305,-0.905,-102.905,262.817,162.292
0.364,0.281,-0.924,-109.497,250.000,152.283
0.383,0.250,-0.944,-124.939,263.367,147.949
0.308,0.220,-0.972,-133.240,279.663,151.184
0.206,0.214,-0.980,-130.859,296.143,155.579
-0.040,0.232,-1.001,-112.549,280.762,151.306
-0.079,0.242,-1.013,-52.002,194.153,126.648
0.001,0.326,-1.074,-20.447,141.907,111.877
0.064,0.409,-1.146,15.991,88.684,96.008
0.096,0.519,-1.243,12.939,89.783,94.910
0.075,0.513,-1.226,-0.366,98.816,95.703
0.047,0.488,-1.184,-29.175,118.408,96.802
-0.042,0.517,-1.125,-38.513,124.207,95.642
-0.095,0.558,-1.128,-50.171,117.676,89.539
-0.154,0.559,-1.129,-50.415,106.934,84.473
-0.152,0.529,-1.133,-39.856,85.449,70.740
-0.127,0.469,-1.156,-32.837,78.430,63.721
-0.113,0.448,-1.175,-23.865,76.721,51.941
-0.126,0.443,-1.229,-23.071,79.712,46.509
-0.163,0.439,-1.252,-25.208,79.773,40.833
-0.212,0.374,-1.222,-29.419,64.209,30.823
-0.212,0.341,-1.192,-25.940,52.429,27.527
-0.200,0.325,-1.163,-9.399,30.029,23.621
-0.166,0.345,-1.130,-0.977,21.423,21.118
-0.156,0.354,-1.118,7.324,10.254,13.794
-0.157,0.348,-1.094,8.545,7.629,11.047
-0.160,0.349,-1.093,7.874,5.737,9.583
-0.166,0.343,-1.082,5.981,5.005,9.705
-0.168,0.337,-1.070,1.221,1.770,10.315
-0.160,0.332,-1.039,-0.793,-1.099,9.705
-0.152,0.328,-1.023,-2.747,-4.089,8.301
-0.146,0.323,-1.011,-6.714,-7.812,5.310
-0.133,0.315,-0.994,-7.568,-8.057,4.944
-0.129,0.311,-0.989,-7.141,-4.761,3.845
-0.126,0.298,-0.984,-7.080,-2.258,2.869
-0.124,0.291,-0.979,-7.324,2.319,0.732
-0.121,0.285,-0.973,-7.507,4.272,-0.549
-0.126,0.285,-0.976,-9.644,6.165,-3.845
-0.149,0.273,-0.982,-11.047,5.188,-4.517
-0.157,0.260,-0.980,-12.451,-0.977,-1.770
-0.149,0.253,-0.968,-12.451,-4.944,0.549
-0.144,0.269,-0.963,-13.062,-11.475,2.808
-0.145,0.291,-0.963,-14.648,-14.465,1.709
-0.145,0.282,-0.971,-16.357,-17.334,-0.671
-0.139,0.247,-0.988,-15.320,-21.118,-3.723
-0.126,0.231,-0.991,-12.085,-21.606,-3.479
-0.111,0.227,-0.997,-6.592,-19.836,-3.479
-0.090,0.229,-1.006,-5.371,-18.494,-3.967
-0.090,0.229,-1.008,-4.456,-18.127,-4.089
-0.088,0.223,-1.009,-3.723,-18.677,-2.930
-0.081,0.221,-1.005,-0.854,-17.639,-0.977
-0.067,0.224,-0.998,0.061,-15.564,-1.160
-0.063,0.225,-0.993,-0.061,-8.606,-2.075
-0.063,0.216,-0.979,-0.610,-4.395,-2.441

-0.328,0.932,-1.500,-117.798,-25.024,16.052
-0.364,0.929,-1.572,-139.648,-22.522,-30.151
-0.348,0.713,-1.668,-112.915,-33.142,-64.087
-0.315,0.624,-1.717,-2.869,-65.308,-132.385
-0.281,0.610,-1.883,48.218,-80.383,-160.278
-0.276,0.589,-1.929,90.332,-106.750,-206.543
-0.295,0.399,-1.905,88.440,-121.216,-223.328
-0.321,0.286,-1.838,77.576,-170.105,-244.080
-0.336,0.020,-1.624,72.815,-204.529,-249.145
-0.327,-0.114,-1.547,63.049,-277.771,-241.638
-0.319,-0.314,-1.429,56.274,-313.782,-231.506
-0.300,-0.366,-1.339,46.387,-346.374,-221.252
-0.298,-0.437,-1.122,16.479,-391.968,-203.308
-0.279,-0.491,-0.994,-1.953,-408.936,-194.824
-0.260,-0.553,-0.851,-23.621,-441.040,-164.978
-0.269,-0.644,-0.510,-22.400,-453.735,-146.729
-0.255,-0.669,-0.337,-4.089,-474.915,-114.075
-0.158,-0.655,-0.009,9.460,-483.154,-99.060
-0.064,-0.617,0.119,49.011,-480.652,-64.880
0.033,-0.472,0.350,68.970,-466.186,-48.035
0.084,-0.316,0.422,64.148,-422.241,-24.963
0.090,-0.132,0.619,21.606,-401.978,-19.409
0.204,-0.145,0.749,-85.815,-360.962,-3.174
0.308,-0.260,1.064,-115.051,-332.886,12.573
0.390,-0.294,1.231,-113.220,-253.113,56.763
0.599,-0.202,1.471,-92.957,-205.688,82.520
0.591,-0.091,1.571,-73.486,-153.992,107.788
0.595,0.039,1.664,-63.721,-43.518,151.733
0.732,0.339,1.724,-69.702,15.869,165.955
0.815,0.511,1.656,-89.844,148.437,159.973
0.927,0.890,1.349,-101.868,217.590,141.113
0.952,1.046,1.141,-111.084,343.689,91.492
1.015,1.215,0.675,-94.910,394.958,67.688
0.940,1.172,0.418,-66.528,435.791,42.358
0.693,0.998,-0.260,-13.184,469.727,-53.833
0.542,0.898,-0.611,19.836,459.106,-120.850
0.415,0.802,-0.920,100.098,380.615,-261.047
0.055,0.590,-1.453,128.479,318.787,-315.002
-0.083,0.448,-1.745,110.229,157.654,-311.829
0.210,-0.041,-2.075,74.585,62.744,-270.142
0.353,-0.357,-1.951,8.850,-105.713,-216.003
0.475,-0.883,-1.368,0.122,-155.762,-205.505
0.491,-1.026,-1.098,58.533,-200.745,-188.538
0.460,-1.033,-0.722,107.117,-215.393,-179.871
0.442,-0.966,-0.610,150.635,-233.459,-171.997
0.465,-0.800,-0.390,179.810,-270.447,-154.846
0.425,-0.734,-0.263,161.804,-282.898,-140.259
0.411,-0.690,-0.122,74.219,-296.082,-103.271
0.464,-0.675,0.189,15.259,-296.875,-82.092
0.507,-0.686,0.350,-82.703,-273.071,-26.978
0.541,-0.698,0.668,-114.929,-250.366,4.150
0.582,-0.704,0.820,-143.188,-196.228,67.078
0.673,-0.659,1.033,-137.573,-168.152,93.384
0.626,-0.563,1.105,-117.065,-104.675,132.263
0.748,-0.332,1.153,-122.253,-75.867,145.325
0.812,-0.270,1.192,-138.000,-47.729,152.832
0.960,-0.237,1.260,-158.936,27.893,152.588
0.920,-0.171,1.250,-146.179,74.402,147.339
0.869,-0.064,1.187,-98.389,171.875,145.752
0.849,0.187,0.922,-81.177,214.233,148.621
0.870,0.276,0.758,-60.974,286.621,146.606
0.825,0.350,0.434,-47.424,318.298,138.184
0.728,0.321,0.288,-9.521,352.356,107.178
0.596,0.216,-0.075,13.794,352.966,87.463
0.590,0.196,-0.305,42.480,347.961,63.782
0.479,0.210,-0.519,94.849,319.641,26.245
0.243,0.232,-0.844,80.078,290.527,28.442
0.228,0.180,-0.899,-2.563,206.299,62.256
0.319,0.025,-0.868,-31.494,162.292,73.120
0.400,-0.009,-0.864,-48.401,88.989,68.970
0.507,-0.081,-0.749,-46.753,65.796,65.613
0.531,-0.110,-0.652,-39.673,53.284,76.172
0.522,-0.106,-0.506,-43.396,56.152,88.135
0.543,-0.103,-0.445,-55.237,59.692,103.821
0.558,-0.117,-0.310,-76.782,68.909,138.855
0.546,-0.091,-0.271,-73.120,76.416,152.832
0.530,-0.036,-0.267,-37.903,96.313,172.424
0.494,0.147,-0.337,-16.907,109.314,180.237
0.473,0.265,-0.398,5.981,143.616,194.336
0.439,0.504,-0.562,2.014,163.208,200.073
0.424,0.610,-0.654,-32.166,202.637,207.886
0.245,0.741,-0.747,-59.204,219.299,208.313
0.152,0.774,-0.764,-85.693,231.384,206.665
0.031,0.774,-0.830,-106.079,228.760,189.331
0.006,0.767,-0.885,-98.022,211.792,170.227
0.007,0.781,-0.954,-67.749,182.129,131.042
-0.027,0.830,-1.106,-57.434,181.885,118.530
-0.061,0.820,-1.152,-57.312,196.472,106.323
-0.127,0.773,-1.173,-61.157,198.181,102.417
-0.137,0.742,-1.165,-59.631,173.401,88.623
-0.152,0.693,-1.153,-53.467,146.851,76.477
-0.151,0.674,-1.151,-44.067,83.740,51.514
-0.145,0.656,-1.182,-45.410,60.425,43.152
-0.159,0.641,-1.214,-52.185,47.546,38.635
-0.179,0.614,-1.231,-74.463,43.396,37.903
-0.207,0.557,-1.208,-81.238,44.983,38.025
-0.198,0.526,-1.176,-70.862,43.457,28.687
-0.182,0.483,-1.108,-55.969,39.368,19.043
-0.173,0.473,-1.083,-21.423,30.579,-2.319
-0.182,0.438,-1.072,-6.531,27.039,-10.681
-0.187,0.420,-1.085,10.437,19.470,-13.000
-0.175,0.409,-1.100,11.597,14.954,-7.019
-0.163,0.412,-1.096,-0.671,3.113,3.601
-0.156,0.398,-1.069,-11.780,-2.563,5.310
-0.152,0.378,-1.049,-22.949,-6.348,5.798
-0.131,0.323,-1.000,-33.569,-8.423,5.188
-0.121,0.287,-0.972,-29.419,-7.751,2.808
-0.115,0.253,-0.944,3.235,-4.333,-6.104
-0.117,0.229,-0.908,29.663,-1.648,-10.986
-0.126,0.253,-0.907,81.726,2.747,-17.273
-0.140,0.374,-0.943,96.863,3.235,-17.517
-0.143,0.445,-0.961,91.248,0.366,-13.977
-0.154,0.531,-0.980,72.998,-3.601,-11.902
-0.153,0.534,-0.969,26.855,-16.479,-7.812
-0.123,0.498,-0.922,6.836,-22.705,-5.859
-0.107,0.479,-0.897,-19.409,-29.419,-3.296
-0.086,0.434,-0.860,-25.940,-29.541,-2.869
-0.075,0.419,-0.852,-28.809,-27.466,-2.136
-0.059,0.407,-0.852,-27.161,-17.944,0.549

-0.363,1.013,-1.382,-55.115,147.583,-138.123
-0.515,0.890,-1.529,-11.047,110.962,-226.990
-0.666,0.616,-1.659,22.949,68.542,-264.465
-0.652,0.568,-1.664,94.604,-36.987,-317.322
-0.514,0.537,-1.559,113.037,-91.492,-339.783
-0.462,0.500,-1.472,100.220,-184.753,-386.658
-0.475,0.310,-1.234,80.139,-224.731,-410.339
-0.493,0.149,-1.088,60.303,-293.823,-446.960
-0.446,-0.196,-0.876,74.829,-319.519,-455.322
-0.377,-0.293,-0.834,101.868,-341.125,-455.994
-0.344,-0.318,-0.714,150.330,-378.113,-434.326
-0.363,-0.338,-0.617,153.503,-393.860,-413.696
-0.352,-0.404,-0.532,105.591,-416.138,-362.915
-0.287,-0.585,-0.352,63.354,-420.593,-337.524
-0.270,-0.703,-0.221,-28.870,-416.443,-280.090
-0.144,-0.900,0.127,-73.730,-413.757,-246.765
-0.131,-0.956,0.330,-157.593,-406.555,-183.166
0.029,-1.103,0.752,-184.937,-397.400,-150.269
0.143,-1.149,0.945,-209.412,-346.619,-64.758
0.454,-1.060,1.224,-217.041,-299.316,-10.376
0.604,-0.988,1.332,-220.581,-176.086,101.379
0.707,-0.779,1.405,-203.186,-108.582,148.987
0.748,-0.598,1.339,-160.645,8.606,212.585
0.773,-0.125,1.181,-160.278,57.129,231.689
0.823,0.083,1.101,-178.345,103.210,243.042
0.872,0.268,0.999,-225.952,199.402,241.150
0.938,0.642,0.719,-235.901,250.244,232.544
0.982,0.847,0.546,-212.036,355.957,210.144
1.007,1.200,0.150,-179.321,409.668,193.970
0.831,1.282,-0.084,-122.986,469.910,109.802
0.384,1.156,-0.638,-87.341,447.021,37.537
0.305,0.996,-0.880,37.659,313.782,-114.502
0.360,0.875,-1.272,113.403,243.652,-169.189
0.372,0.920,-1.503,169.067,189.941,-201.294
0.408,0.890,-1.711,173.462,104.065,-216.064
0.528,0.562,-1.677,138.977,52.368,-221.924
0.556,0.349,-1.471,102.905,-31.250,-252.014
0.525,-0.051,-1.014,119.202,-56.824,-270.630
0.517,-0.205,-0.831,201.477,-85.144,-296.143
0.547,-0.358,-0.668,242.310,-90.759,-296.814
0.557,-0.328,-0.677,263.306,-113.281,-281.555
0.514,-0.264,-0.708,232.666,-136.963,-264.954
0.491,-0.283,-0.677,108.093,-195.496,-212.463
0.489,-0.515,-0.440,40.222,-219.116,-179.260
0.531,-0.660,-0.268,-17.212,-233.520,-143.555
0.653,-0.864,0.058,-77.209,-239.319,-75.439
0.651,-0.871,0.184,-79.773,-235.840,-46.875
0.647,-0.811,0.279,-75.745,-225.708,7.141
0.647,-0.599,0.429,-94.482,-223.816,36.011
0.723,-0.517,0.557,-183.716,-213.867,97.107
0.948,-0.487,0.891,-235.657,-193.970,124.146
1.118,-0.489,1.022,-291.626,-107.727,159.668
1.113,-0.397,1.118,-293.091,-47.974,171.875
1.068,-0.326,1.109,-273.254,70.923,189.087
0.935,-0.104,1.007,-248.596,123.535,194.580
0.880,0.052,0.893,-171.631,217.163,201.233
0.792,0.400,0.574,-129.822,259.094,200.562
0.730,0.543,0.381,-90.576,296.631,193.787
0.674,0.635,0.173,-37.964,343.018,154.907
0.484,0.631,-0.181,-22.461,343.750,122.192
0.406,0.566,-0.309,17.822,303.528,36.194
0.147,0.363,-0.529,50.293,270.935,3.174
0.063,0.310,-0.647,75.684,189.697,13.367
0.296,0.256,-0.800,65.063,144.531,37.781
0.448,0.205,-0.784,46.753,102.234,50.476
0.604,0.057,-0.599,5.737,54.993,45.837
0.609,-0.014,-0.505,-5.981,53.284,45.044
0.584,-0.074,-0.440,-5.798,66.162,60.181
0.568,-0.055,-0.456,-1.526,69.214,72.083
0.570,0.013,-0.504,-21.240,68.115,101.929
0.574,0.117,-0.555,-50.659,69.153,120.972
0.578,0.131,-0.529,-113.708,82.153,157.532
0.546,0.147,-0.423,-132.080,93.201,171.509
0.515,0.178,-0.380,-127.869,125.000,195.190
0.480,0.332,-0.437,-111.572,148.743,203.796
0.447,0.425,-0.528,-95.947,177.734,208.252
0.372,0.522,-0.641,-93.628,235.596,205.811
0.211,0.677,-0.828,-112.793,256.165,203.125
0.103,0.723,-0.891,-158.081,257.324,190.674
-0.138,0.723,-0.949,-163.818,226.562,176.941
-0.165,0.674,-0.953,-125.610,133.728,143.250
-0.113,0.683,-1.072,-95.886,100.342,128.052
-0.078,0.735,-1.205,-69.580,88.867,105.164
-0.075,0.782,-1.343,-79.590,100.708,97.046
-0.120,0.777,-1.329,-98.755,114.197,79.529
-0.202,0.757,-1.282,-89.050,104.370,65.247
-0.215,0.765,-1.277,-67.627,83.191,46.326
-0.199,0.772,-1.271,-22.827,32.349,6.653
-0.146,0.745,-1.246,-12.695,17.700,-6.348
-0.111,0.719,-1.231,-22.461,16.724,-11.475
-0.062,0.643,-1.207,-34.058,21.973,-9.155
-0.080,0.594,-1.197,-49.561,18.433,-10.254
-0.156,0.477,-1.165,-48.279,6.165,-12.756
-0.174,0.433,-1.162,-31.799,-26.001,-7.202
-0.136,0.383,-1.127,-21.606,-40.955,1.404
-0.094,0.372,-1.089,-4.028,-61.829,14.832
0.017,0.385,-0.994,2.441,-66.162,16.479
0.063,0.396,-0.947,11.292,-61.096,15.137
0.115,0.406,-0.883,15.076,-51.697,14.832
0.115,0.424,-0.871,18.860,-38.940,14.893
0.105,0.449,-0.869,19.592,-12.939,13.367
0.088,0.471,-0.880,14.648,-4.456,10.498
0.081,0.454,-0.882,2.991,2.686,4.089
0.081,0.408,-0.880,-0.061,4.211,3.479
0.086,0.398,-0.880,-2.014,7.690,5.676
0.097,0.403,-0.884,-2.319,10.010,6.287
0.090,0.418,-0.893,-2.563,12.390,5.920
0.062,0.427,-0.919,-4.944,13.794,0.793
0.044,0.417,-0.931,-5.981,12.939,-2.869
0.027,0.402,-0.941,-4.944,9.399,-7.019
0.013,0.383,-0.957,-3.235,6.653,-6.348
0.017,0.386,-0.963,-1.770,-0.122,-2.075
0.032,0.380,-0.949,-2.686,-3.052,-0.549
0.038,0.371,-0.935,-2.869,-5.188,-0.305
0.034,0.374,-0.938,-1.892,-4.456,-0.671
0.028,0.376,-0.941,-2.380,-3.479,-0.061
0.027,0.356,-0.919,-2.869,-3.967,0.366
0.032,0.351,-0.912,-1.221,-5.554,0.732
0.035,0.366,-0.925,-1.404,-5.859,0.916

-0.338,1.099,-1.632,-79.285,113.586,-27.649
-0.471,1.145,-1.722,-105.530,116.943,-85.571
-0.663,1.120,-1.881,-104.492,105.652,-117.676
-0.780,1.068,-1.956,-81.238,40.710,-180.786
-0.895,0.821,-1.950,-60.608,-8.423,-200.989
-0.867,0.710,-1.910,-9.460,-111.877,-215.454
-0.727,0.556,-1.796,7.935,-164.978,-222.839
-0.678,0.456,-1.675,18.250,-269.531,-245.666
-0.617,0.254,-1.360,19.592,-312.561,-254.272
-0.597,0.154,-1.204,19.897,-348.999,-260.559
-0.567,0.046,-1.045,16.724,-411.743,-270.630
-0.501,-0.183,-0.708,15.686,-437.134,-273.376
-0.443,-0.289,-0.547,23.804,-463.928,-268.127
-0.327,-0.445,-0.303,32.349,-464.416,-262.024
-0.265,-0.521,-0.195,46.997,-447.510,-249.023
-0.178,-0.624,-0.038,53.284,-430.115,-241.638
-0.162,-0.649,0.028,52.673,-397.278,-222.229
-0.125,-0.696,0.171,36.194,-390.320,-209.778
-0.103,-0.765,0.296,-28.503,-387.756,-173.218
0.077,-0.994,0.628,-57.861,-381.470,-146.057
0.195,-1.073,0.786,-72.998,-335.388,-69.885
0.436,-1.048,0.977,-64.026,-298.035,-23.987
0.534,-0.961,1.028,-49.683,-216.553,64.453
0.671,-0.744,1.129,-53.711,-177.856,102.173
0.760,-0.633,1.168,-65.918,-141.479,132.996
0.853,-0.520,1.205,-93.384,-53.955,174.255
1.109,-0.277,1.161,-104.248,-3.540,182.617
1.106,-0.116,1.100,-133.179,99.182,184.998
1.086,0.197,0.911,-148.071,151.306,187.439
1.099,0.385,0.747,-154.053,262.939,185.974
1.150,0.855,0.283,-141.785,325.684,178.711
1.111,1.048,0.036,-97.229,441.711,138.916
0.597,1.123,-0.411,-77.942,467.590,89.172
0.370,1.040,-0.588,-59.753,457.397,18.372
0.237,0.810,-0.828,14.343,364.685,-125.610
0.205,0.709,-0.966,61.401,315.491,-172.729
0.187,0.621,-1.186,92.957,233.459,-181.396
0.326,0.399,-1.703,58.777,188.416,-160.706
0.363,0.215,-1.781,-35.950,60.547,-148.682
0.368,-0.202,-1.563,-57.373,-11.780,-164.001
0.393,-0.388,-1.353,-16.785,-127.625,-211.426
0.443,-0.616,-0.911,32.471,-161.194,-230.591
0.455,-0.671,-0.760,150.146,-193.054,-243.469
0.512,-0.675,-0.652,194.092,-204.773,-238.281
0.542,-0.597,-0.622,213.989,-219.482,-226.990
0.499,-0.459,-0.545,175.171,-249.145,-181.946
0.498,-0.432,-0.485,116.333,-262.756,-150.208
0.516,-0.453,-0.391,-22.095,-294.434,-84.900
0.600,-0.632,-0.025,-74.280,-303.650,-53.894
0.593,-0.692,0.169,-116.150,-294.861,1.404
0.723,-0.730,0.431,-109.375,-281.433,24.536
0.713,-0.703,0.557,-81.543,-241.089,63.110
0.814,-0.570,0.717,-76.843,-211.060,84.045
0.860,-0.503,0.783,-99.243,-132.629,125.977
0.968,-0.431,0.889,-111.877,-90.820,141.235
0.953,-0.393,0.919,-114.807,0.610,157.104
0.867,-0.308,0.852,-110.901,49.988,158.997
0.798,-0.259,0.770,-108.154,97.107,158.447
0.716,-0.216,0.690,-109.924,171.143,161.926
0.533,-0.146,0.546,-113.342,198.181,171.020
0.445,-0.104,0.458,-129.517,246.460,203.369
0.387,-0.032,0.249,-138.977,274.109,221.619
0.390,-0.012,0.156,-132.996,337.769,243.958
0.370,0.036,-0.045,-121.216,369.934,244.324
0.319,0.073,-0.156,-112.549,427.612,240.601
0.078,0.114,-0.351,-122.192,446.716,245.361
-0.030,0.135,-0.450,-131.592,450.806,251.221
-0.087,0.166,-0.572,-117.798,396.057,237.183
-0.027,0.320,-0.850,-100.220,352.173,213.562
-0.022,0.430,-0.972,-81.543,276.001,162.842
-0.102,0.562,-1.081,-80.078,251.282,145.386
-0.156,0.588,-1.104,-79.102,236.328,135.620
-0.200,0.628,-1.164,-75.073,238.953,140.747
-0.212,0.677,-1.209,-59.265,230.225,139.160
-0.254,0.794,-1.340,-52.429,209.106,123.596
-0.295,0.839,-1.422,-48.157,145.874,78.979
-0.313,0.835,-1.494,-48.157,116.577,61.707
-0.277,0.794,-1.485,-48.096,95.032,49.438
-0.240,0.732,-1.444,-50.354,73.059,33.936
-0.188,0.613,-1.335,-50.476,67.444,30.884
-0.164,0.568,-1.297,-40.100,59.021,30.762
-0.140,0.507,-1.250,-31.189,53.223,29.541
-0.150,0.499,-1.231,-14.771,34.302,22.400
-0.162,0.514,-1.213,-9.399,23.804,18.127
-0.152,0.514,-1.205,-6.287,9.399,8.423
-0.126,0.478,-1.167,-7.935,6.836,3.113
-0.120,0.451,-1.138,-13.123,6.287,-5.371
-0.124,0.397,-1.069,-13.245,5.188,-7.202
-0.122,0.380,-1.036,-10.193,2.441,-7.263
-0.114,0.374,-1.009,-0.427,-5.859,-4.822
-0.099,0.390,-0.977,3.052,-9.521,-3.479
-0.096,0.398,-0.964,3.845,-13.672,-0.854
-0.075,0.390,-0.940,1.892,-13.977,0.000
-0.063,0.378,-0.935,-2.197,-10.620,1.038
-0.053,0.360,-0.927,-3.479,-8.057,2.014
-0.052,0.354,-0.919,-4.028,-4.578,3.235
-0.062,0.361,-0.928,-3.601,-4.578,2.563
-0.069,0.363,-0.939,-2.808,-6.836,1.282
-0.068,0.346,-0.934,-1.282,-7.324,1.648
-0.059,0.339,-0.925,5.005,-7.202,2.319
-0.050,0.355,-0.919,7.385,-7.141,2.930
-0.051,0.370,-0.917,8.423,-6.409,4.150
-0.051,0.378,-0.913,9.155,-2.808,5.554
-0.039,0.380,-0.907,10.559,-0.732,4.578
-0.037,0.381,-0.909,16.296,3.296,1.038
-0.053,0.393,-0.927,19.470,4.822,-0.305
-0.063,0.401,-0.937,20.203,5.249,-1.953
-0.067,0.399,-0.944,16.724,3.967,-2.502
-0.064,0.393,-0.941,5.493,-0.488,-0.977
-0.060,0.385,-0.933,-0.671,-2.625,0.793
-0.054,0.373,-0.924,-10.559,-4.150,3.479
-0.047,0.343,-0.908,-11.780,-3.479,4.211
-0.046,0.338,-0.905,-10.132,-2.625,4.578
-0.045,0.344,-0.900,-3.479,-1.282,4.517
-0.046,0.349,-0.897,-1.099,-0.488,4.517
-0.049,0.354,-0.895,-0.916,1.404,5.493
-0.068,0.367,-0.903,-3.174,1.953,6.653
-0.075,0.373,-0.909,-10.376,0.916,9.521
-0.074,0.387,-0.926,-13.977,-0.732,10.010

1.129,0.658,0.948,-193.604,127.563,171.204
1.118,0.869,0.783,-286.011,279.114,185.669
1.084,1.246,0.268,-298.096,349.121,182.373
1.008,1.352,-0.014,-268.250,438.965,109.802
0.566,1.165,-0.455,-244.690,438.721,31.860
0.282,0.837,-0.662,-198.425,402.832,-60.486
0.069,0.302,-1.198,-22.522,272.156,-211.121
0.085,0.173,-1.449,73.120,210.571,-237.732
0.142,0.139,-1.668,189.880,108.032,-208.008
0.308,0.125,-1.944,197.205,54.871,-186.096
0.360,0.058,-1.885,140.930,-56.335,-172.424
0.422,-0.149,-1.476,110.657,-102.478,-174.438
0.439,-0.272,-1.217,100.586,-184.204,-188.354
0.499,-0.463,-0.734,120.056,-219.788,-198.914
0.562,-0.502,-0.577,175.049,-259.277,-216.492
0.601,-0.545,-0.333,198.364,-262.878,-217.407
0.579,-0.543,-0.239,210.876,-260.498,-205.322
0.538,-0.507,-0.092,193.665,-262.268,-194.458
0.562,-0.459,-0.058,160.278,-266.724,-176.819
0.512,-0.425,0.061,59.814,-271.545,-117.859
0.601,-0.427,0.166,-4.272,-268.799,-81.055
0.663,-0.469,0.331,-116.516,-244.995,-12.756
0.792,-0.551,0.652,-148.193,-221.313,13.428
0.788,-0.542,0.773,-169.800,-156.189,58.533
0.901,-0.462,0.937,-174.927,-122.986,81.421
0.926,-0.404,1.027,-183.105,-52.124,128.967
1.079,-0.263,1.145,-182.983,-7.385,151.184
1.135,-0.139,1.114,-159.729,102.295,175.415
1.182,0.243,0.842,-140.930,162.598,177.429
1.214,0.478,0.635,-105.408,280.090,169.922
1.165,0.904,0.195,-87.891,333.252,162.598
0.980,1.010,-0.008,-69.641,375.977,149.841
0.731,1.021,-0.227,-51.514,385.864,72.693
0.459,0.928,-0.712,-36.865,341.858,8.301
0.472,0.791,-0.864,56.152,201.050,-124.268
0.515,0.533,-1.065,114.319,133.850,-174.438
0.562,0.466,-1.191,177.002,33.020,-192.993
0.710,0.211,-1.223,176.697,-4.456,-171.631
0.741,0.039,-1.105,147.705,-59.448,-137.146
0.737,-0.272,-0.801,134.827,-76.660,-133.423
0.704,-0.391,-0.653,130.920,-91.248,-134.827
0.686,-0.460,-0.545,145.386,-122.620,-134.888
0.656,-0.523,-0.419,150.757,-136.475,-127.380
0.636,-0.519,-0.359,109.985,-153.687,-87.830
0.629,-0.499,-0.194,67.688,-155.334,-55.603
0.618,-0.529,-0.086,-36.682,-139.832,5.615
0.714,-0.527,0.118,-90.027,-126.709,28.931
0.693,-0.527,0.222,-164.978,-96.069,71.289
0.612,-0.546,0.408,-182.739,-78.125,93.384
0.656,-0.537,0.451,-187.622,-39.124,137.939
0.713,-0.418,0.452,-184.570,-15.076,158.875
0.702,-0.336,0.428,-186.645,16.785,180.481
0.680,-0.271,0.398,-210.815,102.417,221.558
0.676,-0.190,0.330,-220.886,149.475,238.098
0.698,-0.146,0.299,-201.050,229.919,263.977
0.563,-0.034,0.230,-173.645,258.362,275.085
0.457,0.067,0.140,-127.197,294.006,292.786
0.285,0.372,-0.144,-125.122,304.565,296.082
0.270,0.559,-0.290,-169.922,325.317,285.706
0.304,0.821,-0.521,-202.881,337.769,271.301
0.315,0.861,-0.630,-231.934,349.670,249.084
0.294,0.830,-0.736,-253.784,360.535,183.044
0.006,0.626,-0.901,-239.380,347.290,148.010
-0.156,0.555,-1.005,-168.884,274.536,107.300
-0.249,0.682,-1.334,-130.737,224.792,99.976
-0.190,0.793,-1.499,-95.398,137.817,82.092
-0.081,0.845,-1.605,-101.379,114.197,69.092
-0.033,0.767,-1.546,-130.798,100.098,39.429
0.036,0.582,-1.389,-135.010,98.633,22.766
0.006,0.508,-1.341,-115.479,94.788,-6.104
-0.119,0.401,-1.330,-101.990,88.806,-12.024
-0.150,0.367,-1.342,-88.318,78.735,-11.292
-0.147,0.349,-1.343,-61.890,51.941,-1.160
-0.106,0.352,-1.318,-54.382,40.039,2.075
-0.081,0.342,-1.287,-60.486,24.048,0.549
-0.041,0.249,-1.186,-66.223,20.386,-2.075
-0.039,0.203,-1.141,-58.716,20.203,-5.249
-0.044,0.170,-1.089,-44.739,20.813,-5.981
-0.052,0.180,-1.079,-13.672,19.226,-9.766
-0.063,0.211,-1.073,-3.845,17.944,-11.414
-0.064,0.216,-1.075,-2.441,16.418,-10.132
-0.053,0.198,-1.063,-8.057,15.381,-7.874
-0.046,0.182,-1.054,-19.653,8.667,-5.127
-0.027,0.139,-1.030,-22.156,4.211,-4.028
-0.016,0.116,-1.011,-21.057,1.221,-2.136
-0.009,0.106,-0.996,-10.254,1.038,2.258
-0.006,0.134,-0.984,-4.333,2.319,3.113
-0.010,0.152,-0.982,0.183,3.052,2.380
-0.009,0.168,-0.982,-0.916,1.892,2.380
-0.001,0.173,-0.982,-6.531,-0.244,1.526
0.010,0.162,-0.974,-9.460,0.366,0.244
0.005,0.161,-0.978,-12.695,5.066,-0.488
-0.002,0.161,-0.988,-14.587,7.751,-0.549
-0.006,0.148,-0.988,-16.357,11.353,-1.892
-0.010,0.132,-0.990,-14.404,11.658,-2.380
-0.010,0.137,-0.995,-10.681,10.742,-3.296
-0.015,0.143,-1.000,-1.770,7.019,-6.287
-0.018,0.151,-1.010,1.770,5.554,-6.104
-0.020,0.162,-1.020,0.305,5.066,-3.113
-0.027,0.164,-1.031,-4.578,6.409,-2.136
-0.038,0.156,-1.032,-14.038,9.155,-0.793
-0.041,0.135,-1.018,-16.296,8.057,-0.366
-0.033,0.123,-1.007,-11.597,3.845,-0.793
-0.021,0.119,-1.001,-5.005,2.869,-1.587
-0.021,0.129,-1.004,6.531,2.869,-3.662
-0.034,0.152,-1.015,7.874,3.357,-3.967
-0.045,0.171,-1.021,-0.549,2.441,-2.563
-0.048,0.179,-1.016,-9.277,0.000,-2.136
-0.042,0.157,-1.000,-17.456,-2.197,-2.258
-0.027,0.109,-0.973,-21.484,-0.610,-3.418
-0.023,0.094,-0.970,-17.761,2.197,-4.517
-0.024,0.086,-0.974,-6.775,7.446,-6.836
-0.036,0.093,-0.993,-2.747,8.911,-6.897
-0.040,0.102,-1.001,-2.808,8.301,-5.310
-0.045,0.110,-1.004,-5.859,6.775,-4.761
-0.045,0.101,-1.001,-11.108,4.700,-3.601
-0.042,0.073,-0.997,-11.108,5.249,-3.052
-0.044,0.069,-1.000,-5.737,7.935,-2.441
-0.057,0.091,-1.014,-2.441,8.606,-2.197

-0.468,0.706,-1.703,69.519,89.294,-239.868
-0.528,0.659,-1.801,56.885,59.448,-289.124
-0.615,0.437,-1.791,41.870,36.621,-312.073
-0.660,0.334,-1.804,24.841,-15.381,-340.515
-0.817,0.182,-1.851,17.578,-54.199,-342.773
-0.854,0.095,-1.835,2.136,-162.903,-316.711
-0.823,-0.123,-1.668,-10.071,-222.961,-296.936
-0.802,-0.258,-1.510,-37.048,-325.684,-258.545
-0.732,-0.474,-1.174,-44.006,-359.619,-242.981
-0.712,-0.553,-1.004,-41.931,-402.283,-218.201
-0.521,-0.691,-0.661,-32.288,-417.908,-203.430
-0.424,-0.711,-0.498,-1.404,-435.669,-165.649
-0.275,-0.608,-0.267,12.085,-435.486,-145.996
-0.253,-0.501,-0.195,12.634,-430.115,-129.883
-0.202,-0.327,-0.043,-50.842,-416.504,-104.553
-0.189,-0.310,0.094,-108.765,-410.583,-88.440
-0.110,-0.350,0.255,-218.445,-393.921,-38.879
0.052,-0.488,0.540,-243.713,-379.272,-8.179
0.117,-0.531,0.643,-221.619,-340.027,51.270
0.261,-0.476,0.783,-189.819,-317.261,78.003
0.334,-0.378,0.846,-135.620,-266.785,129.883
0.503,-0.105,0.971,-128.418,-238.708,154.419
0.670,0.019,1.035,-144.714,-175.659,194.397
0.776,0.279,1.212,-154.175,-136.597,207.214
0.951,0.413,1.289,-157.898,-39.856,219.421
1.059,0.792,1.343,-153.137,15.076,213.867
1.062,0.998,1.290,-148.071,76.843,201.477
1.081,1.179,1.166,-143.005,208.313,161.011
1.148,1.461,0.797,-135.803,272.766,137.634
1.170,1.531,0.600,-79.956,389.770,86.243
1.032,1.415,0.199,-45.776,431.152,47.363
0.876,1.311,-0.056,6.775,455.078,-77.209
0.532,1.113,-0.713,39.429,437.317,-148.865
0.378,1.016,-1.063,78.369,402.832,-211.975
0.139,0.768,-1.676,107.361,293.030,-272.034
0.132,0.562,-1.899,91.248,225.281,-259.827
0.217,0.309,-2.036,46.570,85.205,-215.210
0.387,-0.151,-1.916,33.875,26.917,-207.825
0.391,-0.301,-1.720,52.246,-45.593,-224.243
0.302,-0.423,-1.306,85.999,-68.970,-238.342
0.258,-0.455,-1.142,175.049,-118.469,-264.832
0.239,-0.420,-0.954,203.491,-145.325,-271.790
0.245,-0.340,-0.927,201.660,-200.195,-267.639
0.177,-0.239,-0.892,164.124,-229.553,-254.944
0.123,-0.280,-0.787,28.015,-276.611,-202.698
0.138,-0.468,-0.430,-40.161,-291.931,-166.809
0.192,-0.573,-0.242,-92.346,-301.086,-128.845
0.246,-0.671,0.090,-146.057,-303.833,-61.707
0.328,-0.678,0.235,-151.489,-301.392,-35.461
0.380,-0.667,0.380,-142.090,-286.316,8.057
0.467,-0.583,0.624,-140.991,-270.691,24.841
0.505,-0.517,0.733,-168.701,-229.919,56.396
0.576,-0.459,0.993,-192.871,-205.627,76.721
0.658,-0.449,1.152,-225.647,-138.916,129.333
0.832,-0.368,1.398,-221.436,-99.915,157.227
0.825,-0.245,1.466,-180.725,-9.888,202.820
0.846,0.107,1.464,-161.804,39.124,213.928
0.860,0.302,1.401,-142.334,137.817,208.252
0.781,0.618,1.177,-140.625,186.096,197.388
0.745,0.707,1.031,-141.846,232.605,184.631
0.710,0.737,0.885,-130.859,319.519,157.104
0.537,0.610,0.613,-108.521,358.704,144.897
0.392,0.502,0.472,-66.589,413.513,123.169
0.214,0.296,0.149,-64.636,429.932,112.732
0.213,0.228,-0.060,-71.472,449.524,93.201
0.189,0.083,-0.487,-71.716,448.914,81.116
0.120,-0.036,-0.619,-72.998,438.660,67.566
0.022,-0.144,-0.707,-68.176,397.400,71.228
-0.016,-0.223,-0.836,-55.054,372.375,98.511
0.048,-0.176,-0.917,-23.743,332.092,144.348
0.068,-0.020,-1.056,-26.367,319.275,149.048
0.015,0.053,-1.124,-69.031,305.847,151.001
-0.049,0.193,-1.223,-97.412,298.584,153.687
-0.083,0.222,-1.217,-130.371,251.160,143.372
-0.239,0.157,-1.157,-123.840,211.731,133.606
-0.289,0.175,-1.192,-71.777,132.202,127.258
-0.326,0.439,-1.406,-52.002,105.408,126.709
-0.324,0.569,-1.495,-50.903,89.966,124.756
-0.305,0.642,-1.527,-92.163,80.933,116.577
-0.237,0.622,-1.459,-117.187,77.576,108.521
-0.215,0.559,-1.398,-127.014,58.838,75.012
-0.240,0.444,-1.289,-103.699,45.532,52.612
-0.264,0.405,-1.258,-19.897,23.804,22.644
-0.280,0.528,-1.307,20.813,19.165,22.827
-0.245,0.659,-1.355,40.588,12.085,35.706
-0.137,0.783,-1.373,12.695,4.883,35.706
-0.092,0.711,-1.325,-66.833,-11.475,21.667
-0.029,0.427,-1.174,-88.623,-16.602,13.428
-0.007,0.303,-1.103,-88.928,-19.104,6.104
0.002,0.229,-1.052,-42.297,-18.188,-3.479
-0.008,0.237,-1.020,-10.193,-14.099,-2.991
-0.012,0.290,-1.023,33.752,-3.296,3.662
-0.010,0.408,-1.037,37.170,0.977,5.554
-0.014,0.437,-1.043,11.658,5.981,3.601
-0.032,0.401,-1.026,-7.690,6.104,1.282
-0.034,0.345,-1.004,-35.400,2.930,-1.099
-0.021,0.233,-0.959,-39.307,1.465,-1.099
-0.013,0.198,-0.946,-31.433,2.319,-1.709
-0.019,0.163,-0.931,-23.743,5.249,-2.136
-0.033,0.167,-0.935,-15.747,9.094,-1.770
-0.067,0.201,-0.968,-5.615,13.611,1.221
-0.080,0.217,-0.987,-5.066,12.451,2.380
-0.080,0.226,-1.003,-9.583,5.310,1.953
-0.058,0.211,-1.005,-12.268,1.770,1.343
-0.045,0.198,-0.996,-14.587,-0.183,2.136
-0.030,0.179,-0.982,-14.832,0.916,2.930
-0.030,0.173,-0.974,-13.245,4.761,3.967
-0.043,0.176,-0.961,-10.986,7.080,3.784
-0.057,0.187,-0.961,-4.211,9.216,0.671
-0.087,0.203,-0.980,-1.221,7.690,-0.916
-0.091,0.206,-0.993,0.732,0.854,0.793
-0.073,0.210,-1.002,-1.038,-2.075,2.747
-0.062,0.201,-0.993,-4.150,-3.174,3.723
-0.057,0.187,-0.979,-7.996,0.061,3.723
-0.060,0.171,-0.964,-7.019,2.380,3.967
-0.064,0.180,-0.965,-1.953,5.493,4.456
-0.072,0.210,-0.977,0.183,5.981,3.784
-0.076,0.218,-0.987,1.465,5.310,1.831
-0.079,0.218,-0.999,0.977,4.517,1.404

-0.584,0.219,-1.595,63.782,-114.990,-304.260
-0.582,0.191,-1.544,37.842,-204.041,-333.923
-0.609,0.125,-1.349,13.611,-244.141,-350.586
-0.648,0.022,-1.190,-36.255,-314.453,-380.188
-0.677,-0.305,-0.876,-43.945,-339.905,-386.047
-0.639,-0.470,-0.775,-1.770,-371.582,-376.221
-0.511,-0.616,-0.627,36.316,-383.850,-361.267
-0.487,-0.615,-0.526,95.764,-407.288,-314.941
-0.399,-0.544,-0.332,96.680,-420.593,-287.476
-0.353,-0.539,-0.245,44.067,-440.247,-232.056
-0.276,-0.572,0.003,1.587,-442.139,-203.369
-0.236,-0.608,0.141,-85.266,-427.490,-137.146
-0.086,-0.630,0.407,-125.732,-411.255,-104.309
-0.016,-0.636,0.523,-164.978,-390.381,-74.341
0.107,-0.668,0.653,-229.370,-340.088,-22.095
0.249,-0.770,0.953,-246.887,-311.646,3.418
0.313,-0.790,1.084,-233.643,-242.676,64.819
0.550,-0.696,1.240,-209.961,-203.430,101.624
0.643,-0.574,1.286,-166.992,-122.253,180.298
0.881,-0.256,1.327,-156.555,-82.642,216.614
0.933,-0.041,1.332,-161.438,1.465,270.081
1.173,0.480,1.332,-174.377,47.058,284.546
1.228,0.758,1.321,-215.515,137.268,276.855
1.226,1.285,1.208,-231.445,188.110,257.812
1.196,1.507,1.075,-236.877,242.004,228.638
1.192,1.714,0.884,-209.595,350.647,149.048
1.124,1.879,0.442,-181.641,400.330,103.333
0.979,1.798,0.200,-139.771,460.754,-16.052
0.554,1.362,-0.309,-117.004,457.703,-89.905
0.396,1.075,-0.585,-40.466,394.714,-222.900
0.192,0.678,-1.264,11.597,352.173,-261.108
0.129,0.612,-1.565,57.312,301.208,-281.067
0.037,0.453,-1.851,107.361,172.546,-310.791
-0.002,0.286,-1.902,109.009,111.511,-329.956
-0.014,0.069,-1.875,84.595,23.621,-335.571
-0.047,-0.345,-1.627,86.487,-9.644,-324.036
-0.060,-0.503,-1.482,144.836,-81.055,-294.922
-0.047,-0.590,-1.255,174.133,-121.521,-282.593
-0.017,-0.552,-1.175,181.824,-205.872,-260.864
0.047,-0.483,-1.001,159.485,-243.347,-242.798
0.054,-0.511,-0.869,86.243,-289.978,-185.974
0.081,-0.608,-0.529,44.861,-302.368,-154.968
0.142,-0.630,-0.358,-30.334,-320.312,-100.586
0.250,-0.665,-0.045,-64.392,-324.768,-77.698
0.274,-0.665,0.131,-121.033,-325.684,-34.607
0.328,-0.643,0.477,-146.240,-322.632,-13.062
0.422,-0.640,0.648,-171.570,-317.200,7.263
0.460,-0.634,0.834,-214.355,-293.945,52.979
0.715,-0.599,1.206,-226.318,-270.935,83.252
0.782,-0.566,1.381,-223.083,-191.101,152.588
0.982,-0.346,1.575,-205.627,-135.437,185.364
1.050,-0.161,1.602,-167.541,-11.414,223.572
0.931,0.232,1.542,-158.203,53.162,223.389
0.847,0.386,1.440,-149.475,165.344,195.068
0.687,0.551,1.187,-140.015,206.177,174.072
0.632,0.559,1.039,-125.916,239.014,152.344
0.612,0.539,0.853,-82.947,295.044,116.455
0.604,0.433,0.426,-56.824,323.364,106.384
0.606,0.383,0.206,-20.752,381.103,99.121
0.484,0.249,-0.100,-20.325,406.799,100.220
0.341,0.170,-0.198,-36.194,429.077,102.600
0.043,0.008,-0.417,-35.461,409.546,98.572
0.013,-0.037,-0.563,-28.015,310.242,79.956
0.101,0.045,-0.865,-30.640,256.958,74.829
0.173,0.105,-0.979,-41.077,214.844,78.857
0.233,0.119,-1.007,-91.248,163.452,100.098
0.299,-0.016,-0.834,-115.967,150.818,107.239
0.341,-0.092,-0.736,-110.657,154.175,119.568
0.444,-0.078,-0.723,-86.670,169.739,128.662
0.427,0.010,-0.796,-49.561,217.957,149.719
0.161,0.246,-0.948,-48.523,237.427,160.278
0.035,0.352,-1.010,-57.922,233.398,172.546
-0.101,0.469,-1.101,-55.481,204.712,167.114
-0.074,0.524,-1.130,-34.485,130.676,144.470
0.066,0.635,-1.181,-27.466,107.910,137.512
0.092,0.669,-1.206,-28.076,100.403,134.338
0.094,0.683,-1.236,-51.514,116.638,129.700
-0.046,0.711,-1.237,-67.749,126.343,125.549
-0.147,0.727,-1.226,-72.205,116.394,110.535
-0.241,0.716,-1.207,-53.772,91.553,98.450
-0.202,0.730,-1.211,1.221,34.668,76.782
-0.050,0.804,-1.222,21.362,19.043,68.970
-0.002,0.826,-1.213,24.536,18.494,54.810
-0.013,0.811,-1.176,10.803,24.658,48.096
-0.037,0.788,-1.155,-6.104,28.442,41.321
-0.066,0.752,-1.131,-27.161,18.799,26.001
-0.075,0.660,-1.091,-27.527,7.568,21.912
-0.039,0.630,-1.079,-15.808,-11.047,26.489
0.033,0.631,-1.054,-12.207,-15.503,28.076
0.048,0.622,-1.035,-23.193,-17.029,21.484
0.043,0.546,-0.970,-33.508,-15.442,17.700
0.031,0.502,-0.933,-42.419,-8.911,16.113
0.006,0.459,-0.884,-36.499,-4.578,16.235
0.005,0.459,-0.876,-13.550,3.052,12.878
0.002,0.482,-0.880,-3.845,6.409,9.705
-0.007,0.497,-0.889,1.038,9.705,6.531
-0.015,0.508,-0.898,-8.240,14.282,3.174
-0.021,0.495,-0.913,-21.057,15.198,2.625
-0.023,0.473,-0.923,-50.598,13.306,1.221
-0.032,0.389,-0.922,-60.364,9.460,0.549
-0.025,0.342,-0.913,-58.838,1.587,1.770
-0.006,0.289,-0.904,-49.561,0.122,3.357
-0.007,0.287,-0.903,-26.184,3.296,4.883
-0.025,0.309,-0.912,-16.113,6.653,4.700
-0.038,0.323,-0.921,-3.418,11.169,3.662
-0.055,0.348,-0.950,-1.465,10.681,3.235
-0.057,0.352,-0.963,-2.258,8.606,3.113
-0.055,0.349,-0.971,-8.118,3.845,3.662
-0.050,0.330,-0.972,-11.414,1.404,4.150
-0.046,0.318,-0.967,-15.076,-3.296,5.798
-0.035,0.301,-0.943,-14.038,-3.967,6.775
-0.030,0.301,-0.931,-5.371,-0.732,7.324
-0.027,0.320,-0.925,1.038,1.648,6.104
-0.031,0.336,-0.931,10.193,3.845,2.014
-0.025,0.355,-0.943,10.559,4.272,0.671
-0.021,0.356,-0.946,4.700,5.493,0.305
-0.016,0.352,-0.953,0.366,5.676,0.916
-0.017,0.348,-0.959,-4.028,5.859,1.770
-0.024,0.345,-0.965,-9.460,7.446,3.174

-0.348,1.290,-1.378,75.867,75.867,-47.546
-0.338,1.378,-1.462,29.846,79.163,-80.627
-0.383,1.429,-1.591,-3.784,76.721,-105.957
-0.462,1.362,-1.626,-52.979,53.528,-166.199
-0.636,1.103,-1.645,-47.485,34.790,-196.167
-0.656,1.015,-1.663,12.695,-5.737,-244.812
-0.607,1.010,-1.688,37.842,-28.320,-263.794
-0.590,1.034,-1.675,43.152,-53.894,-280.823
-0.615,0.892,-1.581,-3.662,-118.103,-313.477
-0.637,0.726,-1.505,-34.912,-151.917,-327.820
-0.685,0.343,-1.330,-66.650,-213.684,-342.651
-0.694,0.156,-1.208,-66.345,-246.277,-342.773
-0.698,-0.014,-1.056,-46.753,-321.106,-333.252
-0.678,-0.235,-0.754,-30.273,-354.431,-324.524
-0.648,-0.264,-0.666,0.854,-388.061,-305.664
-0.615,-0.378,-0.493,6.165,-392.639,-297.180
-0.597,-0.499,-0.382,7.385,-387.146,-274.719
-0.523,-0.782,-0.140,12.329,-380.615,-260.437
-0.483,-0.905,-0.040,28.992,-376.038,-230.591
-0.376,-0.998,0.150,30.212,-377.441,-213.989
-0.336,-0.978,0.226,-9.277,-391.540,-173.035
-0.253,-0.924,0.433,-56.641,-402.954,-149.170
-0.154,-0.967,0.616,-173.096,-406.921,-72.205
0.308,-1.092,1.021,-215.820,-381.287,-10.498
0.443,-1.071,1.192,-242.737,-283.997,131.165
0.564,-0.894,1.432,-231.262,-233.948,192.383
0.620,-0.741,1.493,-168.762,-148.804,274.170
0.790,-0.283,1.530,-134.277,-107.605,295.959
0.896,0.022,1.551,-117.554,-58.350,310.852
1.022,0.286,1.573,-162.170,70.496,336.365
0.904,0.724,1.566,-201.599,151.001,348.877
0.800,1.021,1.407,-211.487,342.224,357.849
0.665,1.729,0.850,-164.185,431.274,339.172
0.512,1.917,0.608,-31.494,520.935,230.713
0.131,2.124,0.104,4.883,507.263,141.479
0.132,2.163,-0.185,-1.282,428.650,-46.387
0.268,1.910,-0.776,-17.944,399.109,-121.399
0.214,1.641,-1.073,-28.442,379.883,-179.138
0.093,1.390,-1.382,-22.766,335.388,-243.958
-0.100,0.999,-1.872,-8.606,292.480,-254.456
-0.140,0.809,-1.963,23.682,160.278,-264.465
-0.064,0.493,-1.911,32.410,92.529,-268.616
-0.017,0.332,-1.793,44.189,-13.245,-281.250
-0.000,0.024,-1.447,55.603,-50.720,-291.504
0.001,-0.083,-1.288,98.206,-101.868,-314.819
0.039,-0.264,-1.072,123.352,-119.202,-323.120
0.061,-0.332,-1.013,154.846,-150.940,-312.500
0.042,-0.376,-0.854,146.423,-175.781,-295.471
0.034,-0.386,-0.755,65.369,-235.352,-242.187
-0.007,-0.516,-0.519,10.742,-255.249,-205.200
0.048,-0.611,-0.354,-41.870,-265.198,-165.344
0.121,-0.703,-0.180,-125.488,-275.757,-93.811
0.233,-0.824,0.134,-155.640,-279.419,-63.538
0.311,-0.843,0.275,-196.838,-268.188,-1.038
0.497,-0.870,0.558,-209.167,-246.704,34.302
0.574,-0.858,0.695,-219.849,-181.702,112.793
0.682,-0.769,0.915,-219.177,-146.912,153.381
0.708,-0.670,0.974,-203.247,-73.792,226.807
0.777,-0.447,0.943,-190.491,-33.997,256.470
0.745,-0.314,0.884,-157.227,52.307,301.270
0.671,-0.011,0.732,-143.066,97.412,318.420
0.658,0.138,0.638,-135.742,141.663,331.055
0.634,0.286,0.528,-133.423,224.243,337.402
0.533,0.633,0.227,-132.812,258.911,332.336
0.431,0.783,0.074,-151.245,306.274,317.383
0.306,0.903,-0.163,-172.852,320.557,307.251
0.284,0.901,-0.268,-206.665,343.994,277.405
0.241,0.896,-0.486,-211.792,353.271,257.751
0.183,0.917,-0.616,-198.608,352.966,211.609
0.024,0.963,-0.958,-187.439,336.304,182.434
-0.046,0.903,-1.073,-177.429,305.908,152.649
-0.155,0.787,-1.130,-150.269,224.060,110.596
-0.135,0.811,-1.170,-130.798,185.303,103.943
-0.082,0.877,-1.231,-112.549,133.118,106.445
0.003,0.952,-1.292,-121.033,123.657,105.835
0.018,0.907,-1.263,-143.982,130.981,94.299
-0.005,0.767,-1.182,-143.616,137.451,84.167
-0.050,0.703,-1.164,-118.652,122.314,50.171
-0.162,0.533,-1.118,-98.816,98.999,31.616
-0.172,0.479,-1.102,-53.345,52.307,15.442
-0.103,0.489,-1.116,-35.156,37.598,17.944
-0.070,0.521,-1.120,-26.123,28.870,22.339
-0.051,0.546,-1.083,-36.987,24.109,26.245
-0.065,0.542,-1.058,-49.072,25.696,25.146
-0.083,0.534,-1.036,-65.491,30.762,19.104
-0.117,0.496,-1.002,-67.139,30.273,13.855
-0.126,0.460,-0.988,-59.998,19.409,4.944
-0.101,0.399,-0.955,-51.453,12.756,4.883
-0.074,0.392,-0.949,-31.128,5.920,8.362
-0.044,0.415,-0.972,-23.254,6.470,7.568
-0.048,0.421,-0.990,-17.883,11.475,1.587
-0.079,0.416,-1.021,-18.738,13.672,-0.732
-0.090,0.412,-1.028,-20.264,13.672,-2.319
-0.087,0.396,-1.009,-21.851,4.089,-4.272
-0.075,0.385,-0.992,-20.386,-3.296,-3.906
-0.061,0.380,-0.980,-16.418,-16.602,-0.671
-0.035,0.372,-0.956,-15.503,-20.813,0.427
-0.025,0.368,-0.943,-14.832,-20.447,0.427
-0.023,0.358,-0.922,-13.977,-16.724,-0.061
-0.025,0.351,-0.914,-9.460,-7.141,0.183
-0.029,0.351,-0.905,-6.409,-3.357,0.244
-0.031,0.354,-0.905,-2.869,-0.183,-1.526
-0.050,0.362,-0.931,-3.418,-0.488,-3.113
-0.058,0.364,-0.946,-9.460,-4.272,-4.822
-0.056,0.361,-0.956,-14.160,-6.958,-5.005
-0.048,0.351,-0.948,-20.996,-9.277,-5.188
-0.032,0.322,-0.929,-20.569,-7.446,-5.066
-0.028,0.314,-0.931,-13.123,-0.610,-5.371
-0.037,0.305,-0.955,-8.789,3.052,-5.737
-0.048,0.302,-0.973,-5.676,6.226,-5.859
-0.061,0.302,-0.993,-4.333,7.996,-4.700
-0.083,0.303,-1.010,-5.798,4.883,-4.272
-0.078,0.295,-1.001,-5.798,-7.080,-3.601
-0.045,0.287,-0.968,-2.258,-12.024,-2.441
-0.029,0.295,-0.952,6.104,-14.282,0.122
-0.013,0.315,-0.931,8.240,-11.963,0.244
-0.015,0.321,-0.924,7.629,-5.066,0.244
-0.019,0.329,-0.916,5.798,-2.380,0.671
-0.030,0.339,-0.918,1.099,-1.587,0.549

-0.386,1.180,-1.431,-33.142,100.830,-31.189
-0.477,1.226,-1.528,-61.218,86.304,-90.881
-0.624,1.099,-1.656,-67.627,78.186,-121.643
-0.676,1.009,-1.720,-59.692,65.002,-170.410
-0.729,0.841,-1.786,-52.612,51.880,-189.575
-0.764,0.759,-1.772,-36.255,1.221,-223.999
-0.770,0.570,-1.664,-25.330,-32.166,-239.380
-0.759,0.495,-1.617,-9.888,-93.994,-269.897
-0.770,0.327,-1.556,-12.207,-122.498,-281.921
-0.767,0.223,-1.513,-21.606,-151.794,-287.292
-0.784,0.005,-1.379,-49.561,-212.952,-279.114
-0.816,-0.104,-1.301,-63.599,-243.042,-271.301
-0.856,-0.212,-1.207,-88.440,-309.631,-258.301
-0.882,-0.446,-0.936,-94.238,-349.792,-251.221
-0.841,-0.557,-0.764,-73.669,-428.467,-226.929
-0.680,-0.701,-0.420,-44.495,-455.749,-210.571
-0.555,-0.710,-0.296,26.428,-485.168,-184.814
-0.372,-0.641,-0.120,55.664,-485.596,-175.964
-0.302,-0.573,-0.067,78.064,-461.121,-161.804
-0.236,-0.483,0.049,66.711,-447.449,-152.954
-0.213,-0.474,0.138,11.841,-427.368,-122.925
-0.104,-0.523,0.351,-21.729,-417.969,-102.295
-0.042,-0.560,0.485,-81.360,-394.592,-58.350
0.128,-0.670,0.756,-100.586,-380.615,-35.522
0.226,-0.711,0.883,-110.474,-340.637,18.433
0.472,-0.697,1.116,-103.943,-312.012,52.368
0.578,-0.641,1.221,-94.299,-241.150,123.108
0.776,-0.475,1.417,-93.994,-200.745,156.006
0.877,-0.388,1.488,-94.666,-158.752,183.350
0.974,-0.260,1.530,-95.459,-61.157,217.163
1.132,0.067,1.487,-102.295,-6.165,223.999
1.114,0.243,1.438,-138.794,113.586,225.647
1.011,0.617,1.270,-157.532,173.828,225.952
0.958,0.815,1.141,-168.274,289.490,224.792
0.906,1.202,0.774,-154.541,347.412,216.187
0.909,1.361,0.531,-95.276,460.876,164.917
0.764,1.474,-0.035,-62.927,503.357,116.699
0.556,1.470,-0.354,-37.354,528.320,54.138
0.266,1.428,-0.723,-1.709,488.220,-91.187
-0.131,1.211,-1.481,11.780,409.668,-158.813
-0.119,1.083,-1.784,22.278,225.037,-215.820
0.132,0.746,-2.229,20.508,156.494,-208.801
0.203,0.511,-2.314,-5.554,48.035,-192.078
0.186,0.020,-2.015,-9.033,-4.028,-192.383
0.168,-0.153,-1.755,53.650,-96.680,-199.768
0.195,-0.271,-1.300,104.309,-136.902,-207.214
0.237,-0.259,-1.116,180.176,-198.853,-232.178
0.269,-0.218,-0.871,193.359,-214.172,-243.469
0.233,-0.242,-0.762,189.026,-221.374,-248.962
0.187,-0.272,-0.651,140.869,-229.431,-238.708
0.173,-0.344,-0.474,100.159,-238.892,-226.685
0.157,-0.365,-0.331,-16.357,-272.705,-190.613
0.162,-0.451,-0.001,-73.914,-292.297,-164.124
0.207,-0.536,0.171,-161.072,-318.054,-106.812
0.391,-0.689,0.532,-183.960,-317.566,-77.148
0.499,-0.752,0.708,-181.763,-289.001,-17.944
0.719,-0.756,1.046,-161.682,-263.367,12.878
0.793,-0.682,1.169,-131.348,-198.120,72.205
0.963,-0.538,1.345,-130.188,-160.095,97.839
0.920,-0.494,1.421,-127.502,-67.932,138.916
0.906,-0.368,1.429,-115.967,-19.531,153.931
0.840,-0.242,1.367,-100.525,25.452,164.673
0.780,-0.115,1.280,-95.215,107.544,180.603
0.729,0.053,1.073,-100.220,144.287,187.317
0.735,0.137,0.960,-84.290,216.003,199.646
0.781,0.379,0.666,-63.354,252.808,203.735
0.820,0.493,0.486,-12.512,326.294,199.890
0.750,0.640,0.140,18.127,361.267,193.909
0.517,0.669,-0.045,47.546,387.878,187.012
-0.009,0.762,-0.761,58.960,363.892,155.579
0.024,0.937,-1.256,38.696,286.194,115.112
0.290,1.110,-1.647,-28.198,66.406,5.371
0.810,0.874,-1.606,-69.824,1.282,-29.114
0.819,0.516,-1.321,-118.042,-22.034,-34.302
0.588,-0.007,-0.840,-92.957,-26.367,-16.052
0.525,-0.075,-0.665,3.174,-54.932,42.236
0.519,-0.033,-0.334,35.706,-62.683,75.562
0.511,-0.008,-0.171,48.828,-45.776,126.404
0.464,0.075,0.073,42.419,-25.146,141.174
0.457,0.161,0.112,31.006,0.488,151.917
0.478,0.254,0.116,-25.757,57.373,172.607
0.566,0.361,0.102,-68.176,85.999,183.899
0.611,0.396,0.091,-133.484,148.315,208.679
0.511,0.421,0.065,-149.475,180.603,220.032
0.404,0.449,0.013,-158.142,236.877,230.347
0.272,0.593,-0.224,-150.330,257.202,227.234
0.220,0.678,-0.364,-134.094,266.846,216.980
0.134,0.829,-0.594,-91.248,253.784,176.514
0.058,0.891,-0.687,-74.707,238.220,153.992
0.013,0.950,-0.783,-57.861,199.646,127.502
-0.008,1.115,-0.956,-54.016,182.495,124.084
0.011,1.194,-1.042,-64.087,156.128,117.004
