aX,aY,aZ,gX,gY,gZ
0.095,0.807,2.070,-139.465,182.007,-20.203
0.061,0.766,2.397,-88.806,281.311,-49.866
0.071,0.693,3.154,-83.984,348.572,-54.687
0.067,0.839,3.686,-107.117,517.883,-56.335
-0.296,1.602,4.000,-109.070,626.221,-69.458
-0.633,1.834,4.000,-49.133,828.003,-132.812
-1.191,1.274,3.183,-2.808,888.061,-161.682
-1.376,0.871,2.533,1.160,927.612,-171.631
-1.669,0.491,1.435,-16.235,929.687,-170.410
-1.878,0.249,0.920,-3.296,937.561,-178.528
-2.082,-0.195,0.381,121.765,947.571,-148.437
-2.016,-0.647,-0.971,121.155,919.556,-79.285
-1.894,-0.342,-1.152,78.003,816.040,52.734
-2.006,0.307,-0.625,126.526,779.236,70.557
-2.381,0.211,-0.464,162.598,671.326,39.551
-3.191,-0.630,-0.753,150.574,587.891,28.076
-3.372,-0.762,-1.236,129.089,398.010,71.533
-2.943,0.198,-2.089,95.276,298.889,95.764
-2.455,0.662,-1.970,53.345,103.943,80.444
-1.366,0.716,-0.802,20.996,37.842,52.307
-0.737,0.545,-0.404,-27.222,9.827,21.057
-0.050,0.365,-0.258,-70.068,27.710,-9.460
0.935,0.325,-0.215,-51.880,51.392,-1.831
0.870,0.509,-0.163,3.479,94.727,13.428
0.048,0.771,-0.334,23.743,113.403,-1.709
-0.412,0.715,-0.642,44.006,134.399,-52.063
-1.204,0.381,-1.336,46.936,117.859,-64.209
-1.318,0.320,-1.455,2.502,50.964,-38.391
-1.105,0.354,-0.906,-32.471,22.095,-15.991
-0.870,0.379,-0.505,-97.900,14.954,12.695
-0.432,0.445,-0.609,-100.281,27.161,8.667
-0.474,0.437,-0.919,-73.792,28.809,-1.953
-0.662,0.442,-1.104,-12.573,-4.456,-17.761
-1.115,0.616,-1.034,2.991,-25.330,-23.743
-1.301,0.744,-1.123,32.776,-83.740,-48.645
-1.840,1.016,-1.667,47.974,-139.526,-65.491
-2.309,1.160,-1.830,20.630,-299.072,-106.995
-3.265,1.386,-1.832,-19.531,-387.085,-132.385
-3.552,1.459,-1.828,-159.546,-563.538,-177.185
-3.823,1.302,-2.044,-243.225,-657.898,-195.557
-3.874,0.999,-2.245,-388.611,-859.253,-175.598
-3.985,0.461,-2.402,-460.083,-960.266,-103.882
-4.000,0.515,-2.025,-561.768,-1103.760,168.701
-4.000,1.483,-0.569,-550.537,-1126.831,304.382
-3.999,1.704,0.289,-146.362,-1299.621,347.107
-3.999,0.283,3.490,163.391,-1454.346,225.769
-3.996,-0.149,4.000,235.107,-1484.924,107.422
-3.632,0.340,4.000,-290.283,-966.309,127.808
-1.791,1.624,3.656,-441.284,-639.282,152.222
-1.494,1.460,2.898,-343.201,-396.301,119.568
-1.166,1.066,3.248,-215.515,-434.448,128.906
-0.616,0.991,3.936,-16.296,-330.994,118.591
0.150,0.556,2.867,-33.997,-190.979,94.604
0.137,0.472,1.436,-129.150,-80.994,94.055
0.043,1.040,0.531,-71.167,-127.869,104.126
0.047,1.214,0.989,30.701,-172.424,91.431
-0.076,0.838,1.315,149.841,-142.944,17.700
-0.094,0.618,1.286,170.593,-103.088,-5.676
-0.058,0.454,1.313,163.696,-58.960,-10.803
-0.037,0.350,1.271,109.558,-54.504,-0.671
-0.073,0.473,1.323,-12.024,-61.096,24.719
-0.145,0.608,1.303,-22.827,-56.824,31.921
-0.222,0.496,1.181,46.570,-22.949,36.682
-0.122,0.311,1.053,69.824,-9.094,49.561
-0.058,0.523,0.932,14.648,19.043,65.247
-0.075,0.898,0.743,9.155,17.029,50.476
-0.073,0.902,0.884,26.917,4.395,25.879
-0.081,0.724,1.016,51.636,-6.958,-19.470
-0.116,0.220,0.978,45.837,-3.113,-22.583
-0.101,0.148,0.944,10.437,3.357,6.165
-0.096,0.346,0.887,-8.484,4.883,21.240
-0.094,0.455,0.859,-15.564,2.808,25.635
-0.125,0.499,0.920,-12.756,0.244,20.752
-0.131,0.459,0.964,10.010,2.380,11.963
-0.116,0.381,0.959,6.042,7.812,10.803
-0.110,0.375,0.881,-10.315,13.428,11.108
-0.116,0.382,0.813,-23.010,13.489,10.559
-0.123,0.422,0.824,-7.324,9.583,9.033
-0.119,0.437,0.865,9.399,4.211,5.188
-0.107,0.410,0.880,2.930,4.700,3.357
-0.096,0.401,0.848,-23.499,5.432,4.028
-0.093,0.414,0.836,-31.860,3.479,4.883
-0.103,0.406,0.856,-35.461,0.244,6.714
-0.113,0.412,0.919,-36.072,1.831,7.751
-0.110,0.419,0.894,-36.560,5.188,8.362
-0.112,0.424,0.842,-15.381,5.676,9.460
-0.112,0.449,0.852,-4.272,3.540,10.010
-0.107,0.458,0.875,-12.390,3.296,8.301
-0.107,0.459,0.828,-20.142,2.930,6.226
-0.111,0.459,0.835,-16.113,-2.625,3.479
-0.113,0.435,0.913,-13.489,-3.052,3.235
-0.110,0.427,0.909,-13.977,2.258,2.197
-0.114,0.460,0.884,-11.658,4.456,2.930
-0.108,0.472,0.901,-8.301,6.104,4.028
-0.100,0.461,0.910,-5.798,10.864,4.944
-0.096,0.444,0.841,-9.949,12.329,6.836
-0.090,0.464,0.802,-12.817,7.385,9.216
-0.084,0.479,0.814,-5.127,3.052,7.385
-0.090,0.469,0.856,12.146,0.671,2.991
-0.098,0.433,0.879,18.677,2.563,2.075
-0.095,0.429,0.865,19.653,4.211,3.113
-0.093,0.464,0.873,10.193,4.578,3.174
-0.102,0.473,0.863,-0.366,4.822,2.197
-0.109,0.473,0.857,-9.277,0.732,1.404
-0.105,0.458,0.869,-5.249,-0.854,1.160
-0.101,0.441,0.870,7.141,0.061,0.427
-0.100,0.454,0.859,12.024,0.366,1.038
-0.102,0.468,0.861,22.095,-0.732,-1.099
-0.104,0.452,0.877,24.475,-0.793,-4.211
-0.100,0.416,0.860,11.047,1.953,-6.958
-0.101,0.406,0.835,-2.197,1.160,-4.333
-0.107,0.423,0.848,-11.353,-0.916,-0.854
-0.113,0.435,0.883,-8.057,-4.333,2.808
-0.114,0.459,0.896,-7.202,-5.615,3.723
-0.112,0.470,0.892,3.235,-3.601,0.854
-0.100,0.423,0.854,10.132,-1.892,-1.526
-0.098,0.398,0.865,2.869,-0.305,-1.282
-0.100,0.406,0.882,-5.615,1.038,0.183
-0.107,0.423,0.868,-7.629,1.587,3.174

-0.143,0.885,2.006,33.630,317.322,-63.477
-0.178,0.770,2.175,56.946,435.303,-92.834
-0.214,0.653,2.655,44.739,490.845,-95.337
-0.245,0.721,2.945,6.653,617.065,-102.173
-0.270,0.859,3.281,20.874,684.265,-103.699
-0.299,0.986,3.569,25.879,823.547,-111.328
-0.827,0.900,3.823,42.480,915.100,-117.187
-0.896,0.693,3.297,81.055,1007.446,-111.816
-0.758,0.464,1.747,93.018,1074.646,-86.548
-0.720,0.519,1.139,38.147,1053.650,-81.665
-0.853,0.526,0.808,0.610,994.690,-90.637
-1.448,0.226,0.382,44.006,978.516,-84.717
-1.859,0.052,0.229,86.182,959.473,-41.382
-2.578,-0.349,0.296,86.609,936.096,-5.249
-2.827,-0.464,0.535,53.955,827.209,86.365
-3.267,-0.242,0.895,35.767,749.878,125.305
-3.592,0.159,0.477,4.028,536.682,121.704
-3.831,1.289,-2.609,162.659,335.449,48.157
-3.346,0.626,-1.499,272.705,112.427,-22.766
-3.036,-0.473,1.049,-225.098,-100.464,-37.109
-1.115,-0.789,0.685,-208.313,-53.711,-25.330
0.320,-0.237,-1.878,198.730,33.325,-22.949
1.648,0.658,-2.337,184.875,-50.232,-30.945
1.412,0.766,-0.445,-13.977,-115.845,-39.246
0.284,0.528,1.197,-21.240,-30.457,-47.852
-0.290,0.372,0.493,28.137,116.638,-33.020
-1.112,0.411,-1.338,23.682,104.126,-7.141
-1.282,0.570,-1.736,-0.305,-17.944,26.367
-1.242,0.512,-1.030,5.493,-54.565,13.184
-0.963,0.330,-0.494,18.066,-50.720,-13.794
-0.539,0.031,-0.540,29.846,-1.038,-51.514
-0.456,0.017,-0.933,28.870,10.315,-46.997
-0.401,0.088,-1.176,33.081,-12.756,-10.132
-0.333,0.397,-0.803,31.799,-27.344,11.292
-0.321,0.606,-0.536,19.409,-7.690,20.691
-0.441,0.755,-0.573,13.184,13.977,4.089
-0.570,0.604,-0.794,-0.610,28.137,-24.292
-0.839,0.290,-0.941,-6.775,18.372,-24.231
-0.896,0.292,-0.838,-12.268,-5.493,-10.681
-1.021,0.493,-0.752,-10.315,-19.348,-11.169
-1.154,0.592,-0.791,-12.146,-62.134,-30.090
-1.579,0.655,-0.829,-20.081,-90.332,-45.532
-1.918,0.595,-0.813,-31.982,-170.044,-81.848
-3.034,0.233,-0.944,-34.119,-234.070,-93.506
-3.647,0.066,-1.234,-33.813,-321.777,-89.966
-4.000,0.360,-2.025,-30.579,-572.266,-30.579
-4.000,0.696,-2.222,-38.940,-726.379,-1.099
-4.000,0.889,-2.244,-64.453,-1009.521,-13.000
-3.990,0.566,-1.631,-77.332,-1121.948,-28.076
-3.676,0.479,-1.240,-116.577,-1314.758,-33.997
-3.797,0.003,-0.860,-132.568,-1457.580,-58.350
-4.000,0.107,0.550,-106.323,-1835.998,41.443
-4.000,0.750,4.000,-33.325,-1951.111,83.801
-4.000,0.556,4.000,-28.076,-1494.934,-1.953
-3.426,0.017,4.000,-103.638,-981.079,-15.076
-2.436,-0.119,3.910,-88.867,-315.308,54.321
-0.801,0.903,3.343,-25.208,-281.677,95.581
-0.371,1.561,3.537,-10.254,-316.162,40.161
-0.096,0.958,3.303,-50.537,-221.741,-17.456
-0.100,0.151,2.249,-55.542,-106.384,-40.588
-0.054,-0.182,1.252,-36.072,-38.269,34.912
-0.044,0.514,0.335,-51.941,-66.772,69.824
-0.089,0.860,0.515,-39.795,-104.553,39.124
-0.266,0.811,1.459,-2.686,-93.750,7.568
-0.306,0.583,1.801,75.439,-25.024,-18.311
-0.215,0.300,1.313,83.191,15.991,-7.751
-0.160,0.362,0.969,26.672,30.701,21.912
-0.135,0.526,0.641,-18.372,13.000,24.597
-0.174,0.647,0.674,-55.969,-13.184,11.719
-0.190,0.582,0.824,-25.391,-11.353,1.038
-0.170,0.423,0.914,14.221,-5.859,-5.859
-0.161,0.311,0.991,42.236,2.747,-0.610
-0.174,0.335,1.051,23.499,6.226,7.751
-0.171,0.423,1.052,-30.640,13.489,15.991
-0.174,0.556,1.028,-49.805,18.921,15.137
-0.175,0.591,0.918,-49.133,31.494,8.423
-0.167,0.464,0.775,-31.372,31.311,3.113
-0.158,0.357,0.769,-13.367,23.376,0.061
-0.144,0.367,0.763,-19.836,18.799,3.601
-0.141,0.430,0.771,-28.564,14.282,6.653
-0.142,0.431,0.804,-28.625,11.169,5.127
-0.143,0.400,0.773,-23.193,14.893,4.517
-0.147,0.398,0.730,-18.860,18.250,8.301
-0.150,0.493,0.757,-19.897,14.587,9.094
-0.147,0.504,0.807,-13.123,4.883,3.601
-0.131,0.454,0.842,-14.099,2.625,1.831
-0.121,0.473,0.815,-27.161,3.662,4.639
-0.131,0.579,0.791,-28.320,4.517,4.944
-0.143,0.558,0.800,-20.935,5.005,2.869
-0.130,0.443,0.840,2.502,5.310,0.061
-0.125,0.452,0.846,3.479,5.981,1.282
-0.128,0.496,0.851,-11.475,7.690,2.014
-0.134,0.521,0.830,-13.611,8.484,0.305
-0.141,0.506,0.766,-4.517,8.179,-0.305
-0.123,0.527,0.643,0.000,3.845,-0.549
-0.117,0.511,0.696,-5.432,-6.592,-3.723
-0.109,0.488,0.805,-12.024,-6.653,-2.319
-0.102,0.503,0.824,-12.268,-6.775,2.808
-0.124,0.578,0.879,-11.475,-7.935,2.686
-0.145,0.587,0.902,-8.789,-8.179,1.160
-0.147,0.547,0.888,4.333,-4.272,-0.488
-0.126,0.463,0.838,2.441,-2.014,0.000
-0.121,0.462,0.849,-5.737,2.380,0.488
-0.120,0.490,0.808,-8.728,3.967,1.404
-0.121,0.516,0.784,-11.353,-1.221,2.319
-0.140,0.550,0.859,-10.986,-4.456,0.916
-0.149,0.531,0.884,-4.700,-2.380,-1.587
-0.144,0.471,0.860,2.319,-0.244,-0.244
-0.129,0.470,0.844,-2.014,2.319,2.258
-0.123,0.487,0.759,-11.353,2.625,2.441
-0.125,0.520,0.737,-13.550,-2.686,6.958
-0.131,0.556,0.810,-3.418,-6.104,6.714
-0.144,0.544,0.850,6.531,-7.751,3.845
-0.155,0.522,0.865,7.019,-6.104,-0.305
-0.152,0.492,0.875,1.892,-4.395,0.549
-0.139,0.492,0.860,-11.230,0.732,1.709
-0.135,0.527,0.783,-14.343,2.136,1.831
-0.135,0.539,0.776,-5.310,1.465,2.747
-0.140,0.544,0.810,-1.282,0.488,3.052

-0.356,0.782,1.694,60.303,201.538,-48.340
-0.384,0.803,1.739,93.018,289.429,-64.575
-0.349,0.699,1.931,93.140,337.219,-73.792
-0.250,0.630,1.971,69.458,436.279,-74.036
-0.278,0.609,1.878,70.435,473.877,-63.660
-0.346,0.671,1.905,77.515,537.231,-48.645
-0.344,0.853,2.143,67.810,571.899,-53.528
-0.372,0.878,2.299,57.068,612.366,-69.458
-0.374,0.839,2.387,45.654,708.618,-113.464
-0.240,0.611,2.253,24.658,748.840,-130.188
-0.209,0.388,1.948,-5.432,797.363,-126.404
-0.205,0.076,1.334,-3.357,808.350,-103.333
-0.318,0.154,1.134,-60.303,827.270,-65.857
-0.629,0.490,0.739,-59.875,846.985,-71.106
-0.660,0.455,0.551,47.180,876.709,-100.525
-1.072,0.199,0.087,63.538,879.883,-98.450
-1.381,0.102,-0.292,69.458,845.642,-44.739
-1.905,-0.012,-0.803,64.087,792.236,-11.597
-2.206,-0.016,-0.637,57.190,724.487,12.878
-2.510,-0.030,-0.265,55.481,589.844,41.443
-3.411,-0.082,0.107,51.392,534.912,49.500
-3.792,-0.138,-0.362,58.838,435.608,61.279
-3.500,-0.122,-2.148,69.092,346.313,57.495
-2.699,-0.017,-2.484,70.251,52.368,26.794
-0.052,0.315,-1.016,53.955,-60.242,18.250
1.136,0.523,0.099,26.306,-54.321,15.625
1.318,0.603,1.158,2.747,35.034,14.160
0.430,0.523,0.501,-24.780,134.766,9.216
-1.673,0.217,-1.812,-53.711,178.650,3.052
-2.325,0.148,-2.510,-26.794,109.009,7.385
-2.350,0.229,-2.167,25.879,-33.264,-14.771
-0.971,0.356,0.263,-10.498,-55.664,-32.654
-0.336,0.244,0.504,7.385,10.010,-43.091
-0.075,0.024,-0.950,37.109,48.401,-36.438
-0.359,0.032,-1.463,47.852,22.827,-14.832
-0.725,0.270,-0.945,33.142,-12.268,-2.747
-0.787,0.511,-0.542,26.245,-25.574,2.258
-0.828,0.703,-0.610,27.710,-12.207,-10.071
-0.783,0.562,-0.788,0.427,-3.174,-33.447
-0.644,0.198,-0.818,-11.597,-6.592,-34.729
-0.684,0.123,-0.792,-14.954,-15.198,-20.691
-0.921,0.348,-0.848,-12.756,-22.339,-16.357
-1.051,0.566,-0.882,-11.963,-33.264,-23.926
-1.592,0.629,-0.922,-3.174,-77.332,-73.303
-2.053,0.521,-0.972,2.502,-117.126,-92.957
-2.652,0.355,-1.155,-2.380,-268.555,-87.463
-3.889,0.166,-1.961,0.183,-395.081,-60.425
-4.000,0.415,-2.343,-39.124,-697.510,-21.790
-4.000,1.143,-2.620,-83.130,-845.337,-38.818
-3.986,1.253,-2.404,-155.090,-1124.390,-69.336
-3.995,0.881,-1.694,-180.420,-1211.182,-58.533
-4.000,0.597,-1.456,-248.962,-1279.358,22.339
-4.000,0.258,-1.125,-279.053,-1370.788,74.036
-4.000,0.114,-0.020,-194.092,-1689.331,167.908
-4.000,0.279,4.000,-22.461,-1769.043,149.963
-3.980,0.116,4.000,438.293,-1191.833,-47.546
-2.783,-1.159,4.000,269.104,-753.052,-81.604
-1.784,-0.427,3.928,-140.503,-436.584,-5.005
-0.307,1.175,3.972,-345.276,-227.722,139.771
0.077,1.057,3.777,-162.476,-213.928,119.629
0.290,0.604,3.204,6.714,-100.525,60.669
0.438,0.170,1.442,-45.715,-31.982,67.383
0.297,0.504,0.615,-112.366,-17.883,101.624
0.051,0.787,0.062,-53.345,-65.063,84.229
0.006,0.629,0.371,0.488,-151.855,33.569
-0.106,0.540,1.203,-33.386,-163.086,25.635
-0.170,0.603,1.464,-59.021,-137.390,16.357
-0.158,0.656,1.464,-35.767,-102.966,14.832
-0.134,0.610,1.247,-13.977,-65.186,18.677
-0.100,0.574,0.979,-6.592,-37.048,23.193
-0.099,0.581,0.781,-3.418,-47.729,18.677
-0.132,0.581,0.901,-3.113,-56.091,7.568
-0.142,0.630,1.008,-1.404,-51.697,5.493
-0.157,0.590,1.016,38.696,-50.964,-0.977
-0.144,0.482,1.129,39.246,-48.645,-3.479
-0.152,0.470,1.206,5.066,-26.062,-6.226
-0.170,0.424,1.166,-13.000,-12.695,-2.747
-0.155,0.485,1.034,-38.940,0.671,8.667
-0.130,0.492,0.818,-32.715,-0.183,5.005
-0.139,0.420,0.782,-23.010,-2.380,-2.014
-0.160,0.379,0.823,-18.982,-5.371,-7.507
-0.207,0.384,0.926,-16.541,-3.479,-3.784
-0.216,0.412,0.924,-3.174,7.080,6.531
-0.181,0.394,0.888,-1.221,12.329,8.240
-0.163,0.352,0.834,-10.559,12.512,11.353
-0.147,0.392,0.834,-12.695,9.033,14.648
-0.152,0.446,0.849,-11.169,7.446,16.907
-0.135,0.566,0.817,-10.986,6.897,14.526
-0.130,0.568,0.807,-16.235,0.793,5.127
-0.149,0.511,0.832,-18.372,-2.075,3.052
-0.160,0.468,0.885,-15.076,-3.174,2.136
-0.167,0.422,0.914,0.427,3.479,3.052
-0.151,0.454,0.820,2.747,8.484,5.005
-0.147,0.512,0.765,0.427,5.981,2.808
-0.173,0.521,0.811,10.132,0.671,-0.244
-0.170,0.474,0.870,34.119,-1.709,-3.601
-0.170,0.409,0.924,32.959,0.671,-2.686
-0.168,0.419,0.939,14.404,8.972,2.747
-0.135,0.451,0.919,3.418,13.550,4.211
-0.118,0.457,0.883,-4.822,15.381,3.906
-0.119,0.460,0.847,-3.601,9.277,1.953
-0.145,0.468,0.861,13.916,6.897,1.221
-0.148,0.433,0.873,46.570,12.268,-0.488
-0.158,0.385,0.877,42.603,14.587,1.526
-0.142,0.388,0.883,20.081,12.390,7.874
-0.120,0.412,0.828,11.658,9.644,8.789
-0.129,0.420,0.797,-31.982,-4.700,8.240
-0.148,0.428,0.915,-44.739,-10.193,7.812
-0.147,0.401,0.939,-26.489,-5.920,6.958
-0.119,0.400,0.859,9.338,10.254,8.179
-0.114,0.425,0.826,1.099,9.277,9.155
-0.116,0.459,0.841,-28.503,-4.028,7.263
-0.143,0.435,0.934,-27.527,-7.385,3.357
-0.151,0.390,0.959,-31.738,-4.944,2.319
-0.137,0.393,0.926,-36.499,-0.366,4.517
-0.134,0.412,0.866,-16.907,6.348,6.165
-0.132,0.463,0.812,-9.705,5.188,6.042
-0.135,0.474,0.829,-2.625,0.854,2.686
-0.138,0.449,0.876,-1.465,0.671,0.549

0.038,0.582,2.055,47.424,201.599,-41.565
-0.029,0.631,2.140,30.334,312.073,-40.527
-0.142,0.764,2.278,28.381,368.408,-43.945
-0.134,0.781,2.280,52.124,470.032,-52.734
-0.105,0.866,2.273,59.265,510.986,-57.739
-0.140,0.865,2.336,62.744,595.520,-83.191
-0.219,0.565,2.415,68.298,644.653,-93.994
-0.251,0.382,2.439,70.923,692.749,-91.370
-0.247,0.267,2.492,31.250,783.569,-56.763
-0.327,0.227,2.249,-2.319,828.735,-39.917
-0.412,0.214,1.865,16.602,892.273,-19.348
-0.611,0.024,0.827,47.974,902.039,-9.888
-0.762,-0.061,0.466,54.443,893.616,29.236
-1.252,-0.127,0.247,59.937,891.602,56.152
-1.416,-0.149,0.029,99.487,872.803,115.295
-2.081,-0.189,-0.329,87.952,824.158,137.817
-2.538,-0.227,-0.336,29.541,681.274,168.579
-3.146,-0.223,-0.180,16.968,608.643,176.147
-3.373,-0.194,-0.250,11.597,543.396,178.284
-3.459,-0.109,-0.634,-3.845,415.710,154.419
-3.027,0.218,-1.623,-0.244,319.214,117.065
-2.537,0.412,-1.586,20.447,74.158,25.024
-0.872,0.634,-0.631,24.902,-5.981,0.000
-0.139,0.640,-0.223,5.188,-11.414,-16.846
0.307,0.512,-0.409,-5.371,29.175,-26.978
0.071,0.360,-0.740,-11.658,66.528,-37.354
-0.848,0.204,-0.863,-23.743,52.429,-29.175
-1.250,0.240,-0.838,-35.339,5.920,-17.334
-1.175,0.408,-0.745,-27.039,-11.902,-19.836
-0.885,0.427,-0.706,-20.142,-18.555,-28.198
-0.516,0.243,-0.867,-10.681,-17.944,-34.851
-0.472,0.160,-0.939,-0.305,-18.921,-37.842
-0.385,0.226,-0.768,14.160,-23.132,-21.790
-0.395,0.350,-0.644,16.907,-19.470,-10.437
-0.455,0.491,-0.630,0.488,-4.211,1.465
-0.556,0.645,-0.790,-10.925,-2.808,-1.343
-0.567,0.592,-0.826,-25.146,-12.573,-11.719
-0.621,0.348,-0.756,-24.719,-18.616,-11.719
-0.694,0.259,-0.717,-13.855,-25.757,-7.141
-0.776,0.244,-0.800,-13.367,-28.809,-5.981
-0.738,0.289,-0.854,-31.860,-48.584,-9.583
-0.790,0.320,-0.855,-41.626,-64.392,-14.221
-0.953,0.309,-0.812,-41.504,-97.778,-18.494
-1.394,0.389,-0.798,-34.180,-115.479,-16.846
-1.673,0.445,-0.866,-18.066,-171.814,-32.410
-2.315,0.415,-1.133,-6.653,-218.506,-49.683
-2.580,0.333,-1.309,28.748,-352.234,-73.059
-2.864,0.332,-1.711,34.729,-431.274,-74.829
-2.957,0.392,-1.871,29.297,-514.648,-78.003
-3.217,0.200,-1.892,1.953,-701.050,-92.651
-3.291,-0.004,-1.788,-23.560,-796.631,-88.623
-3.284,-0.164,-1.605,-86.548,-964.294,-14.038
-3.220,0.092,-1.077,-115.479,-1037.292,44.617
-3.476,0.365,-0.831,-142.822,-1224.792,114.502
-4.000,0.725,-0.091,-117.676,-1382.751,111.694
-4.000,0.561,1.136,85.632,-1647.217,49.683
-3.993,-0.004,4.000,193.542,-1599.609,-2.808
-3.982,-0.180,4.000,44.739,-1092.651,-44.373
-3.110,-0.119,3.982,-92.224,-782.349,-22.888
-2.211,0.095,3.941,-194.946,-455.383,64.087
-0.740,1.458,4.000,-151.062,-410.278,90.393
-0.230,1.468,4.000,53.833,-190.674,-0.488
0.224,-0.265,2.904,46.753,-9.583,-33.569
0.250,-0.432,1.429,-45.471,124.268,-0.977
0.247,-0.035,0.129,-117.981,106.750,120.239
-0.032,1.029,-0.841,-88.440,9.338,135.376
-0.219,1.324,-0.515,-74.402,-155.701,49.072
-0.408,0.854,1.078,-50.232,-177.551,-7.874
-0.395,0.443,1.731,16.541,-120.483,-37.415
-0.228,0.207,1.855,29.602,-59.448,-14.893
-0.167,0.380,1.396,-3.113,36.621,33.020
-0.117,0.753,0.597,-23.560,42.114,35.889
-0.131,0.760,0.470,-21.362,-3.906,9.644
-0.181,0.605,0.689,-6.897,-29.053,-1.038
-0.184,0.528,0.866,14.465,-42.358,-3.906
-0.157,0.488,1.060,46.143,-34.729,-1.526
-0.143,0.540,1.083,35.828,-22.766,-2.075
-0.153,0.572,1.095,7.629,-1.221,-7.690
-0.185,0.491,1.052,0.793,6.592,-8.362
-0.194,0.442,0.968,-28.564,14.954,-0.916
-0.203,0.440,0.815,-48.096,16.296,4.272
-0.192,0.476,0.759,-68.115,16.235,8.362
-0.184,0.551,0.720,-63.538,12.329,7.263
-0.186,0.540,0.756,-26.611,4.822,2.075
-0.176,0.433,0.798,-7.751,3.235,-0.549
-0.190,0.400,0.823,1.526,2.625,-2.014
-0.212,0.463,0.878,-12.939,5.554,1.770
-0.204,0.500,0.882,-19.470,9.033,4.761
-0.184,0.517,0.859,-17.761,16.541,9.033
-0.143,0.494,0.715,-15.503,17.090,10.742
-0.136,0.511,0.684,-12.817,7.874,13.367
-0.159,0.556,0.730,-12.512,2.747,11.597
-0.174,0.556,0.782,-15.442,-2.747,4.761
-0.198,0.541,0.891,-18.494,-0.977,2.869
-0.202,0.533,0.908,-18.311,3.601,3.479
-0.180,0.546,0.859,-11.414,14.465,7.263
-0.180,0.532,0.796,-8.850,17.883,7.751
-0.170,0.519,0.741,-6.165,17.212,10.803
-0.139,0.529,0.691,-7.690,13.977,10.193
-0.152,0.548,0.675,-15.381,2.380,7.751
-0.181,0.620,0.772,-13.794,-3.967,7.996
-0.182,0.622,0.840,5.005,-3.784,2.075
-0.185,0.539,0.846,12.817,0.793,-1.343
-0.180,0.516,0.829,11.414,7.385,0.854
-0.150,0.500,0.782,6.531,8.545,3.174
-0.142,0.510,0.735,0.610,7.629,4.822
-0.151,0.556,0.719,-14.099,-0.854,6.287
-0.178,0.610,0.794,-14.404,-4.333,3.967
-0.188,0.589,0.825,-4.944,-5.005,0.549
-0.181,0.581,0.860,-6.531,-3.235,0.793
-0.172,0.586,0.870,-17.273,2.625,-2.991
-0.174,0.568,0.844,-16.174,5.554,-4.578
-0.175,0.574,0.824,-9.277,9.216,-0.732
-0.161,0.600,0.787,-8.118,10.132,-0.427
-0.161,0.582,0.772,-8.667,8.545,-4.944
-0.169,0.547,0.793,-11.292,6.287,-5.005
-0.168,0.543,0.808,-11.963,5.188,-3.845
-0.168,0.532,0.795,-3.296,7.507,-3.174
-0.171,0.529,0.769,-0.488,8.301,-1.831

-0.145,1.128,2.346,40.771,190.430,-76.721
-0.271,1.425,3.038,-18.738,308.594,-118.469
-0.788,1.800,4.000,-33.508,410.339,-156.555
-1.212,1.738,4.000,56.824,650.024,-236.816
-2.019,1.254,3.866,112.000,766.174,-258.362
-2.156,1.019,3.465,153.320,939.270,-235.107
-2.179,0.620,2.506,162.048,980.225,-204.773
-2.219,0.469,2.088,168.579,1011.230,-169.189
-2.206,0.369,1.598,154.480,1077.820,-93.994
-1.909,0.276,0.362,138.367,1093.445,-65.979
-1.627,0.198,-0.191,79.285,1038.330,-19.043
-1.885,0.150,-0.582,14.709,969.177,-2.380
-2.270,0.140,-0.424,-6.409,848.511,3.906
-2.709,-0.191,0.094,22.827,802.124,9.094
-2.912,-0.291,0.235,29.846,728.027,47.058
-3.306,-0.339,-0.103,15.930,688.171,63.843
-3.436,-0.322,-0.578,-18.311,553.223,76.477
-3.679,0.044,-2.032,-23.376,443.298,63.477
-3.520,0.435,-2.867,28.748,284.363,18.433
-2.678,0.550,-2.514,120.728,-48.340,-67.993
-0.870,-0.158,0.035,14.893,-64.697,-23.804
0.098,-0.207,0.228,-33.020,45.105,55.054
0.969,0.592,-0.589,-6.226,64.026,51.758
0.419,0.889,-0.720,14.648,67.505,-25.452
-1.138,0.413,-1.063,49.744,65.125,-63.477
-1.382,0.080,-1.043,63.232,18.921,-48.157
-1.058,0.262,-0.678,23.315,-2.991,-16.113
-0.752,0.510,-0.640,-17.395,-5.188,1.404
-0.292,0.354,-0.859,-9.766,5.127,-19.470
-0.234,0.027,-0.899,6.836,11.597,-38.208
-0.372,0.039,-0.833,20.996,11.108,-11.719
-0.447,0.328,-0.820,25.818,11.475,11.108
-0.514,0.577,-0.813,26.123,10.803,11.841
-0.629,0.576,-0.752,15.015,8.179,-3.479
-0.656,0.385,-0.785,-2.991,6.897,-12.512
-0.603,0.192,-0.787,-5.005,5.554,-1.038
-0.535,0.232,-0.724,4.700,8.606,16.602
-0.452,0.297,-0.762,9.399,12.634,14.465
-0.474,0.266,-0.828,14.893,13.245,2.747
-0.566,0.215,-0.813,14.771,8.545,0.488
-0.599,0.240,-0.758,14.038,2.747,2.014
-0.604,0.316,-0.712,7.507,-3.357,8.301
-0.546,0.458,-0.689,2.258,-3.418,7.385
-0.514,0.447,-0.710,-6.165,-2.808,0.427
-0.538,0.305,-0.760,-6.104,-2.808,-1.465
-0.591,0.253,-0.786,0.488,-4.578,-2.258
-0.711,0.255,-0.786,2.136,-8.789,-1.343
-0.756,0.302,-0.767,-4.578,-20.813,-1.831
-0.889,0.383,-0.792,-9.583,-29.236,-5.615
-1.054,0.404,-0.868,-18.982,-68.909,-16.663
-1.748,0.372,-1.002,-17.761,-103.271,-23.376
-2.221,0.366,-1.093,-7.812,-208.313,-45.898
-3.113,0.308,-1.372,4.028,-288.818,-63.965
-3.444,0.276,-1.524,8.606,-499.695,-90.393
-3.871,0.280,-1.896,8.057,-618.042,-93.811
-4.000,0.221,-2.032,15.503,-739.868,-93.750
-4.000,0.115,-2.043,-0.610,-970.947,-76.477
-4.000,0.005,-1.756,-62.439,-1066.833,-38.391
-3.995,0.112,-1.588,-231.628,-1222.046,101.685
-3.999,0.539,-1.276,-276.794,-1301.086,181.091
-4.000,0.713,-1.007,-195.251,-1531.921,282.959
-4.000,0.442,1.660,-60.303,-1669.006,262.634
-4.000,0.456,3.653,309.509,-1537.536,79.529
-3.898,0.031,4.000,298.462,-1164.734,-7.446
-3.432,-0.423,4.000,-157.349,-485.168,14.893
-1.616,0.403,3.938,-276.428,-376.953,113.708
-0.868,1.511,3.981,-135.010,-328.308,196.289
-0.131,2.092,3.851,-12.207,-241.577,129.272
-0.013,1.162,3.317,63.110,-128.601,35.400
0.012,0.270,2.528,16.113,31.006,-5.310
0.018,0.317,1.365,-24.902,56.519,42.969
-0.017,0.627,0.994,35.217,54.077,82.275
-0.025,0.715,0.425,70.679,29.846,65.918
-0.065,0.671,0.351,40.283,-37.781,22.400
-0.116,0.641,0.839,0.488,-53.528,6.836
-0.158,0.589,1.023,-23.010,-44.739,5.981
-0.148,0.596,0.967,1.282,-34.302,9.460
-0.138,0.587,0.969,34.180,-25.085,12.268
-0.138,0.531,1.004,36.255,-10.925,11.658
-0.104,0.557,0.940,9.094,-6.287,11.536
-0.107,0.611,0.906,-9.277,-8.911,9.583
-0.110,0.597,0.981,-5.798,-11.841,6.287
-0.115,0.571,1.058,-9.338,-9.399,1.587
-0.115,0.550,1.141,-8.362,-3.174,0.305
-0.109,0.484,1.090,-3.052,17.212,-3.723
-0.120,0.437,0.917,-10.437,24.841,-2.380
-0.118,0.453,0.859,-18.799,27.405,0.061
-0.119,0.401,0.790,-19.165,22.095,2.380
-0.120,0.363,0.796,-12.451,18.005,2.930
-0.131,0.320,0.798,-4.700,15.320,5.676
-0.146,0.357,0.804,-5.737,16.724,10.193
-0.152,0.415,0.806,1.526,17.822,16.724
-0.129,0.462,0.795,6.592,15.686,15.686
-0.102,0.436,0.805,-4.822,11.658,6.714
-0.089,0.386,0.794,-16.052,10.437,3.601
-0.084,0.418,0.801,-22.461,8.545,3.967
-0.085,0.474,0.835,-14.282,3.540,8.179
-0.089,0.469,0.864,-4.517,1.587,8.606
-0.100,0.477,0.890,-5.615,1.953,7.996
-0.120,0.518,0.927,-10.925,3.357,7.202
-0.122,0.505,0.931,-15.442,8.118,3.967
-0.121,0.455,0.872,-15.442,10.559,3.967
-0.118,0.444,0.859,-7.690,12.207,6.104
-0.107,0.420,0.835,-1.587,12.756,7.996
-0.093,0.439,0.815,0.427,13.672,10.498
-0.096,0.499,0.782,-5.188,12.878,12.329
-0.097,0.519,0.786,-1.099,10.437,12.024
-0.088,0.522,0.807,9.033,4.822,8.362
-0.077,0.484,0.850,7.019,2.808,5.066
-0.078,0.470,0.874,2.991,1.099,1.953
-0.090,0.467,0.900,4.089,1.953,2.441
-0.092,0.486,0.893,2.380,5.798,2.808
-0.087,0.488,0.864,3.540,6.287,1.099
-0.079,0.464,0.853,7.385,5.249,0.061
-0.071,0.439,0.844,10.925,2.380,0.000
-0.080,0.428,0.842,6.409,1.526,0.427
-0.079,0.440,0.836,1.770,1.038,2.014
-0.077,0.449,0.832,3.723,-0.183,2.258
-0.085,0.447,0.846,4.028,-3.601,3.052

-0.127,0.639,1.908,28.870,261.414,-59.021
-0.183,0.621,1.955,30.823,373.474,-74.646
-0.141,0.426,1.931,38.086,428.650,-79.224
-0.016,0.332,1.894,46.509,506.226,-60.669
0.222,0.375,1.887,23.071,523.926,-44.067
0.294,0.488,1.925,-40.710,540.955,-27.649
0.405,0.822,2.094,-44.495,554.016,-31.982
0.500,0.911,2.271,-15.991,575.073,-44.373
0.518,0.891,2.588,30.396,634.338,-83.496
0.275,0.641,2.878,15.381,678.955,-99.976
0.049,0.482,2.698,78.003,790.893,-107.483
-0.510,0.017,1.945,138.611,846.741,-92.957
-0.809,-0.211,1.277,164.551,910.156,-23.926
-1.394,-0.334,-0.031,149.963,902.283,27.771
-1.502,-0.196,-0.345,112.244,844.910,123.169
-1.646,0.094,-0.140,92.407,802.795,147.461
-1.965,0.093,0.065,69.397,758.057,149.597
-2.933,-0.152,-0.090,46.753,682.556,131.348
-3.327,-0.175,-0.451,40.527,637.878,130.798
-3.694,-0.098,-0.876,20.874,501.526,126.953
-3.551,0.204,-1.801,31.128,410.522,114.868
-2.844,0.409,-2.076,45.166,161.560,59.814
-0.597,0.626,-1.104,39.307,47.791,36.194
0.541,0.533,-0.151,48.645,4.578,38.391
1.460,0.433,0.811,34.058,61.218,44.495
0.923,0.474,0.556,-31.677,192.627,36.621
-1.222,0.556,-0.822,-54.321,210.999,6.775
-1.970,0.531,-1.397,-54.077,180.786,-26.245
-2.136,0.428,-1.576,-17.456,50.720,-24.292
-1.524,0.347,-0.849,-19.775,8.057,-7.751
-1.087,0.466,-0.535,-39.673,-3.052,8.911
-0.339,0.455,-0.538,-30.579,5.554,-6.226
-0.138,0.214,-0.628,-5.859,17.029,-52.734
-0.432,-0.105,-0.754,3.235,13.672,-45.593
-0.757,0.111,-0.891,23.682,0.366,5.676
-1.156,0.768,-0.953,28.992,-12.085,10.925
-1.112,0.812,-0.827,17.151,-27.161,-18.738
-0.555,0.443,-0.770,16.785,-28.870,-31.006
-0.242,0.316,-0.725,11.536,-27.527,-32.410
-0.059,0.233,-0.494,6.592,-19.470,-21.362
-0.217,0.267,-0.477,1.099,-2.075,-8.789
-0.432,0.295,-0.628,3.479,31.189,0.488
-0.761,0.313,-1.050,4.700,28.259,0.427
-0.819,0.342,-1.045,-4.700,-9.827,6.348
-0.695,0.493,-0.726,-12.329,-23.804,9.705
-0.581,0.517,-0.586,-19.226,-24.048,5.371
-0.458,0.430,-0.551,-18.616,-16.296,-0.854
-0.497,0.366,-0.667,-6.531,-4.639,-7.751
-0.650,0.289,-0.950,-2.747,-9.705,-5.676
-0.720,0.285,-1.001,-6.653,-41.870,9.460
-0.856,0.349,-0.931,-7.263,-60.486,18.860
-0.906,0.426,-0.849,-9.216,-88.318,20.996
-1.037,0.601,-0.678,-13.123,-95.947,8.911
-1.136,0.605,-0.658,-16.113,-111.755,-37.354
-1.352,0.479,-0.851,-20.142,-129.211,-61.401
-1.438,0.422,-1.019,-27.222,-158.264,-75.806
-1.617,0.486,-1.402,-50.964,-246.948,-74.097
-1.781,0.590,-1.538,-56.274,-312.256,-72.083
-1.971,0.676,-1.591,-43.091,-479.126,-93.811
-2.511,0.602,-1.500,-28.381,-556.458,-121.216
-2.720,0.430,-1.374,13.489,-653.992,-161.743
-2.719,-0.036,-1.318,11.047,-679.382,-158.081
-2.602,-0.158,-1.458,-123.596,-739.441,-75.867
-2.496,0.133,-1.812,-214.294,-802.490,-3.357
-2.662,0.441,-1.850,-300.049,-997.436,120.361
-3.686,0.758,-1.481,-288.391,-1107.239,151.550
-4.000,0.795,-1.058,-214.844,-1279.297,183.105
-4.000,0.906,0.433,-179.504,-1334.534,204.041
-3.996,1.016,2.030,-134.338,-1455.383,173.767
-3.984,1.406,4.000,-101.746,-1389.343,153.198
-3.713,1.372,4.000,-51.941,-784.729,106.506
-1.913,0.930,3.956,-100.159,-478.943,77.393
-1.100,0.924,3.951,-159.119,-281.921,78.552
-0.560,1.243,3.981,-129.883,-153.687,128.906
-0.072,1.416,3.700,-20.630,-99.670,115.051
0.006,0.962,2.930,84.229,76.355,49.744
0.103,0.483,0.962,54.443,121.704,38.635
0.137,0.632,0.415,41.382,76.965,48.340
0.083,0.587,0.163,57.800,31.311,45.898
0.049,0.436,0.223,18.555,-29.480,38.330
-0.052,0.570,0.642,-13.184,-49.561,39.856
-0.133,0.752,0.923,-14.221,-64.148,38.330
-0.207,0.844,1.167,43.091,-62.439,24.841
-0.181,0.786,1.310,61.707,-48.035,16.296
-0.138,0.704,1.289,45.532,-19.592,0.183
-0.095,0.468,1.213,26.550,-8.606,-3.113
-0.079,0.418,1.119,-24.231,3.784,12.451
-0.072,0.507,0.996,-35.583,5.554,20.935
-0.079,0.550,0.960,-17.944,16.541,25.452
-0.074,0.578,0.845,-10.254,21.362,23.743
-0.070,0.583,0.826,-7.568,20.386,20.325
-0.079,0.593,0.868,-12.695,7.812,10.132
-0.100,0.572,0.891,-10.681,1.953,4.028
-0.123,0.536,0.933,-4.639,0.549,-4.578
-0.145,0.428,0.892,-4.639,6.531,-4.700
-0.126,0.390,0.809,-8.545,17.517,2.136
-0.089,0.396,0.695,-16.724,18.127,5.554
-0.092,0.436,0.710,-33.081,10.376,10.071
-0.117,0.516,0.797,-31.006,6.348,9.949
-0.122,0.567,0.843,-13.062,3.357,6.592
-0.116,0.531,0.880,5.493,4.150,3.906
-0.098,0.450,0.859,16.479,6.836,1.465
-0.087,0.404,0.818,-8.057,13.306,4.700
-0.097,0.472,0.785,-17.578,12.939,9.827
-0.099,0.509,0.802,0.000,8.545,12.512
-0.101,0.530,0.854,5.859,7.446,8.667
-0.108,0.523,0.861,-1.282,8.057,5.188
-0.096,0.495,0.836,-0.671,9.094,6.409
-0.085,0.488,0.828,-0.244,10.071,6.348
-0.096,0.504,0.802,-12.939,11.169,3.174
-0.107,0.526,0.810,-11.597,10.437,3.845
-0.109,0.542,0.827,17.273,8.911,5.371
-0.093,0.502,0.805,24.597,8.545,3.113
-0.085,0.475,0.795,5.920,4.578,0.183
-0.078,0.490,0.837,-3.540,2.319,0.732
-0.078,0.497,0.865,0.061,1.648,0.244
-0.083,0.503,0.882,0.244,2.014,0.732
-0.081,0.509,0.890,-1.099,2.380,1.343
-0.075,0.484,0.865,-1.526,4.822,0.183

-0.172,0.797,1.995,62.012,234.985,-87.952
-0.239,0.766,2.229,66.528,318.909,-106.384
-0.381,0.578,2.480,68.970,378.052,-112.915
-0.411,0.468,2.361,69.763,488.403,-100.342
-0.443,0.410,1.762,60.791,524.719,-85.754
-0.417,0.466,1.483,24.536,553.650,-70.801
-0.281,0.599,1.233,9.766,554.749,-76.843
-0.210,0.598,1.183,3.784,553.711,-91.492
-0.193,0.343,0.889,47.913,558.960,-122.131
-0.154,0.199,0.634,87.891,568.359,-119.263
-0.085,0.089,0.418,127.380,578.003,-81.482
-0.005,-0.003,0.385,114.197,573.425,-57.861
-0.067,0.004,0.539,68.604,586.426,-20.264
-0.285,0.164,0.780,64.087,610.168,-6.592
-0.496,0.251,0.776,102.234,674.255,8.240
-1.057,0.136,0.713,138.000,707.825,17.151
-1.387,-0.003,0.487,135.986,744.934,66.772
-2.279,-0.138,-0.305,104.309,744.141,105.774
-2.655,-0.025,-0.707,83.923,729.797,143.738
-2.876,0.261,-1.124,44.678,652.344,176.453
-2.915,0.739,-1.911,37.903,589.111,151.428
-2.787,0.623,-2.168,58.655,428.101,66.101
-2.221,0.102,-2.008,45.593,330.994,42.603
-1.768,0.012,-1.573,-9.521,148.376,46.021
-0.648,0.433,-0.917,-19.836,94.116,55.786
-0.172,0.680,-0.773,-12.329,46.143,30.640
-0.034,0.833,-0.810,-9.033,40.222,-6.714
-0.302,0.704,-0.977,1.526,40.527,-41.138
-0.935,0.335,-1.248,30.579,22.156,-48.523
-0.993,0.318,-1.101,28.503,-1.770,-27.710
-0.900,0.447,-0.803,-2.319,-24.353,-11.292
-0.568,0.645,-0.692,-16.174,-17.395,-32.593
-0.405,0.466,-0.853,-9.583,-14.404,-77.271
-0.245,-0.109,-0.951,-0.305,-18.860,-68.726
-0.236,-0.186,-0.856,12.268,-9.399,0.793
-0.315,0.354,-0.731,9.827,2.747,29.236
-0.445,0.674,-0.777,8.423,12.634,16.724
-0.634,0.625,-0.886,10.376,8.362,-6.958
-0.591,0.410,-0.868,-3.845,-0.610,-17.944
-0.433,0.252,-0.771,-11.536,-4.456,-4.944
-0.367,0.324,-0.759,-9.949,-6.836,19.470
-0.345,0.474,-0.799,-8.606,-3.723,20.386
-0.379,0.422,-0.835,-6.836,0.610,13.245
-0.422,0.315,-0.881,-2.197,1.343,-2.930
-0.416,0.239,-0.875,-2.808,-3.174,-1.221
-0.413,0.305,-0.816,-8.118,-9.277,11.047
-0.447,0.438,-0.756,-7.263,-8.179,13.367
-0.464,0.452,-0.776,0.549,-4.822,7.874
-0.430,0.393,-0.865,2.380,-5.371,4.211
-0.397,0.340,-0.883,0.305,-10.010,3.845
-0.378,0.312,-0.842,0.305,-11.902,8.728
-0.368,0.374,-0.784,0.488,-9.460,17.212
-0.366,0.448,-0.705,1.709,-4.944,14.648
-0.389,0.430,-0.749,3.174,1.038,7.996
-0.439,0.354,-0.901,-0.366,4.395,-4.089
-0.458,0.326,-0.919,-3.662,0.916,-5.066
-0.481,0.310,-0.897,-3.174,-9.460,-0.488
-0.510,0.330,-0.832,-1.648,-13.184,2.319
-0.514,0.358,-0.812,1.831,-16.113,1.038
-0.556,0.360,-0.822,4.089,-18.982,-2.014
-0.604,0.363,-0.849,-0.610,-30.151,-10.254
-0.774,0.396,-0.890,-3.601,-37.964,-17.212
-0.927,0.421,-0.908,-6.409,-63.110,-36.011
-1.350,0.417,-1.010,-1.160,-85.693,-45.898
-1.576,0.413,-1.108,14.160,-158.875,-61.340
-2.024,0.448,-1.349,21.912,-208.008,-69.702
-2.162,0.474,-1.447,38.879,-331.299,-79.651
-2.302,0.482,-1.511,41.809,-405.090,-81.726
-2.309,0.493,-1.498,35.034,-483.582,-85.571
-2.286,0.483,-1.512,-17.273,-642.822,-101.990
-2.330,0.411,-1.532,-57.556,-724.365,-105.164
-2.406,0.354,-1.504,-135.193,-882.751,-74.097
-2.585,0.413,-1.300,-166.077,-948.059,-39.063
-2.708,0.510,-1.125,-179.687,-1044.983,52.429
-3.331,0.713,-0.601,-153.015,-1079.712,84.351
-3.766,0.810,-0.256,-51.208,-1141.174,48.889
-4.000,0.478,1.258,16.846,-1211.487,-10.254
-4.000,0.121,2.515,58.777,-1378.357,-93.018
-3.901,0.221,4.000,-38.879,-1279.724,-64.453
-3.416,0.576,4.000,-183.350,-718.506,0.244
-1.796,0.339,3.685,-139.343,-439.331,0.977
-1.264,0.056,3.079,-53.406,-222.290,49.866
-0.641,0.703,2.854,-61.401,-239.197,91.064
-0.493,1.171,3.278,-55.359,-245.056,102.478
-0.368,1.190,3.378,28.992,-102.478,20.813
-0.160,0.247,2.218,59.631,-13.306,-13.672
-0.070,-0.050,1.546,53.894,60.547,15.503
0.074,0.238,0.794,24.475,55.603,47.424
0.067,0.453,0.604,-6.653,21.790,53.345
-0.033,0.546,0.644,-13.733,-2.380,37.537
-0.070,0.530,0.833,-22.522,-38.452,13.367
-0.162,0.509,1.205,-25.391,-41.687,6.775
-0.189,0.488,1.316,-27.344,-36.743,3.540
-0.172,0.389,1.290,-10.986,-13.367,7.263
-0.152,0.349,1.157,-6.165,-0.427,12.634
-0.112,0.369,1.023,-24.353,10.315,23.621
-0.067,0.453,0.907,-28.137,7.324,23.376
-0.075,0.460,0.890,-23.010,0.793,18.860
-0.104,0.503,0.911,-22.217,-0.488,17.578
-0.111,0.508,0.961,-17.578,-0.732,10.620
-0.138,0.460,1.057,-17.273,2.319,5.615
-0.157,0.445,1.081,-24.597,15.686,2.808
-0.143,0.407,1.017,-23.315,23.499,3.174
-0.131,0.368,0.903,-19.653,29.297,4.822
-0.114,0.367,0.806,-22.278,29.053,13.306
-0.091,0.421,0.744,-26.611,26.672,14.343
-0.099,0.425,0.696,-23.560,20.081,15.625
-0.107,0.453,0.682,-16.479,13.977,19.287
-0.108,0.481,0.731,-10.803,5.249,16.296
-0.112,0.516,0.805,-11.597,4.578,9.766
-0.120,0.500,0.812,-4.395,1.892,3.052
-0.112,0.454,0.879,0.427,0.305,3.601
-0.104,0.443,0.907,0.244,1.343,3.113
-0.102,0.441,0.901,-10.071,7.507,1.343
-0.105,0.466,0.865,-10.559,9.033,2.686
-0.103,0.483,0.858,-7.202,9.521,3.235
-0.102,0.488,0.848,-6.592,9.399,0.854
-0.109,0.483,0.846,0.244,8.423,0.610
-0.104,0.444,0.852,8.240,8.362,1.587

-0.291,0.884,1.839,44.434,108.887,-22.827
-0.397,0.980,2.085,39.612,167.725,-44.312
-0.709,1.025,2.573,47.852,214.844,-62.622
-0.864,0.927,2.751,102.112,346.558,-89.111
-1.167,0.683,2.854,124.207,421.570,-89.661
-1.354,0.554,2.883,121.033,576.355,-73.486
-1.705,0.373,2.817,92.285,657.593,-65.369
-1.892,0.273,2.571,63.293,738.098,-60.364
-1.966,0.230,2.225,13.977,864.990,-52.063
-1.635,0.190,1.334,-1.343,896.301,-50.781
-1.532,0.124,0.844,10.437,887.695,-36.621
-1.522,0.074,0.350,36.560,870.178,-21.851
-1.566,0.099,0.356,75.623,872.559,15.076
-1.689,0.010,0.023,98.633,883.057,27.954
-1.744,-0.105,-0.346,140.198,848.511,67.322
-2.017,-0.258,-0.880,129.150,808.899,99.915
-2.089,-0.171,-1.051,92.163,769.653,137.817
-2.251,0.139,-1.311,-13.489,683.777,179.199
-2.439,0.213,-1.341,-38.391,619.385,168.823
-2.771,0.278,-1.332,-33.081,466.492,115.967
-3.575,0.603,-3.205,27.649,271.790,76.355
-3.292,0.502,-3.260,-95.947,-174.866,-21.057
-2.069,0.139,-0.957,-152.283,-96.008,-43.396
-0.805,-0.184,-0.505,42.969,80.322,8.911
1.828,-0.254,-0.602,81.970,58.838,15.869
1.873,0.028,-0.274,-19.592,19.653,18.921
0.355,0.447,-0.199,-8.606,69.824,10.132
-0.481,0.546,-1.235,48.523,110.535,-10.864
-1.185,0.566,-1.926,108.765,-4.761,-43.518
-1.112,0.524,-1.187,65.857,-62.622,-36.987
-0.904,0.468,-0.607,-4.150,-18.738,-9.949
-0.155,0.363,-0.772,-20.569,17.944,-5.920
0.125,0.236,-0.999,-20.447,26.611,-22.583
0.116,-0.051,-0.979,-8.545,14.832,-25.208
-0.035,-0.001,-0.917,25.513,5.554,-4.761
-0.257,0.512,-0.947,32.166,6.958,0.916
-0.344,0.648,-0.960,25.635,7.751,-17.151
-0.392,0.447,-0.930,16.296,9.644,-25.940
-0.358,0.343,-0.924,-8.179,13.733,-18.799
-0.203,0.335,-0.878,-13.428,12.634,-9.888
-0.112,0.370,-0.858,-6.470,14.587,1.526
-0.106,0.384,-0.881,-0.854,17.822,-0.793
-0.168,0.349,-0.928,4.150,19.287,-6.714
-0.220,0.322,-0.970,12.451,14.465,-11.414
-0.295,0.348,-0.941,14.709,10.132,-7.690
-0.293,0.387,-0.893,11.780,3.418,0.000
-0.251,0.457,-0.817,9.827,2.136,1.953
-0.229,0.452,-0.832,6.958,2.991,1.953
-0.230,0.395,-0.901,1.709,2.625,1.831
-0.251,0.370,-0.920,-3.906,-1.099,0.610
-0.312,0.348,-0.908,-2.258,-2.991,-0.427
-0.334,0.347,-0.907,-0.183,-6.104,-1.831
-0.338,0.323,-0.911,-1.465,-8.667,-1.709
-0.339,0.323,-0.897,-6.042,-10.742,-1.831
-0.341,0.334,-0.869,-15.686,-12.878,-2.808
-0.387,0.338,-0.882,-14.587,-15.808,-4.333
-0.471,0.359,-0.906,-2.502,-28.625,-9.033
-0.798,0.427,-0.964,0.000,-40.161,-14.832
-1.008,0.427,-1.049,14.893,-75.195,-29.358
-1.370,0.402,-1.375,22.888,-102.478,-32.166
-1.479,0.455,-1.524,12.268,-186.157,-34.302
-1.681,0.628,-1.620,5.249,-238.892,-42.297
-1.823,0.700,-1.581,-8.667,-345.947,-78.735
-2.218,0.714,-1.554,-15.198,-403.503,-108.093
-2.421,0.594,-1.649,-30.884,-550.354,-169.495
-2.547,0.260,-2.000,-61.401,-647.644,-180.786
-2.557,0.152,-2.109,-169.617,-870.972,-136.230
-2.523,0.489,-1.891,-231.934,-965.149,-82.703
-2.492,0.841,-1.630,-312.683,-1081.360,46.814
-3.215,1.142,-1.028,-285.339,-1125.793,88.501
-3.863,0.984,-0.366,-129.150,-1214.783,88.562
-4.000,0.786,2.618,-69.458,-1295.532,68.909
-4.000,1.013,3.796,-86.426,-1412.720,37.659
-3.944,1.444,4.000,-180.542,-1161.926,-17.700
-2.715,1.043,4.000,-136.292,-811.890,-57.739
-1.949,0.129,3.650,7.812,-262.390,-67.688
-1.169,-0.426,2.607,-10.498,-194.214,3.662
-0.903,0.240,2.879,-108.826,-256.653,104.431
-0.560,1.173,3.681,-84.961,-218.628,96.191
-0.405,1.055,3.307,-32.349,-20.752,18.066
-0.239,0.221,1.826,-6.775,46.326,-10.315
-0.139,-0.114,1.333,44.250,85.449,9.033
0.131,-0.118,0.870,33.203,89.355,43.884
0.165,0.105,0.693,5.737,89.966,73.730
0.127,0.325,0.543,-21.240,67.322,89.355
0.039,0.669,0.415,-18.433,42.297,78.796
0.018,0.753,0.537,-21.973,-8.484,32.715
-0.077,0.570,0.943,-23.560,-20.325,7.019
-0.092,0.413,1.016,-19.348,-10.620,-8.301
-0.058,0.281,0.922,-20.203,-3.662,1.648
-0.038,0.361,0.918,-18.921,0.183,24.780
-0.047,0.506,0.912,-12.939,2.441,27.832
-0.032,0.532,0.855,-9.644,5.615,27.283
-0.017,0.538,0.796,-10.437,7.812,20.935
-0.012,0.518,0.774,-12.024,4.395,15.930
-0.022,0.491,0.834,-14.282,-2.930,7.141
-0.047,0.443,0.928,-18.188,-0.793,4.944
-0.053,0.425,0.912,-26.001,7.324,7.690
-0.041,0.472,0.913,-26.794,8.972,10.925
-0.039,0.499,0.919,-18.311,12.756,9.033
-0.049,0.485,0.880,-10.925,14.465,9.460
-0.034,0.482,0.856,-3.296,14.832,11.963
-0.008,0.474,0.863,5.737,13.245,8.972
-0.012,0.461,0.845,1.099,12.817,5.310
-0.015,0.455,0.818,-15.991,7.263,8.118
-0.012,0.492,0.843,-21.667,2.258,10.559
-0.009,0.494,0.863,-8.972,-2.258,3.845
-0.023,0.432,0.877,-3.540,-2.014,-0.488
-0.023,0.407,0.885,-10.620,0.366,-0.977
-0.030,0.419,0.894,-15.686,2.563,-0.061
-0.033,0.436,0.885,-12.634,6.775,4.028
-0.018,0.456,0.878,-7.629,8.911,6.592
-0.003,0.447,0.844,-4.639,10.925,6.958
0.009,0.444,0.807,-9.766,7.141,5.432
0.007,0.470,0.821,-13.184,3.235,4.211
0.003,0.478,0.843,-15.564,1.404,-0.061
-0.009,0.478,0.864,-15.808,2.319,-1.160
-0.010,0.471,0.864,-9.216,4.517,-0.488
0.000,0.457,0.832,-5.615,5.493,-0.427

-0.187,0.771,1.757,77.759,156.250,-59.814
-0.195,0.765,1.911,82.336,211.487,-78.003
-0.310,0.689,2.259,83.252,248.840,-87.036
-0.432,0.638,2.381,89.050,344.116,-96.252
-0.625,0.578,2.583,90.576,398.926,-98.999
-0.682,0.548,2.613,80.872,455.322,-103.333
-0.720,0.467,2.521,59.326,556.213,-108.521
-0.759,0.229,2.185,66.223,592.041,-96.069
-0.764,0.144,2.111,70.801,653.137,-44.067
-0.881,0.185,2.012,53.772,694.336,-16.663
-1.003,0.249,1.733,58.105,784.546,23.254
-1.312,0.248,0.870,79.529,818.848,34.912
-1.424,0.122,0.357,113.831,847.778,63.293
-1.649,-0.070,-0.467,82.397,834.228,88.989
-1.794,-0.034,-0.633,27.832,807.129,113.525
-2.101,0.200,-0.560,-32.410,747.803,129.456
-2.249,0.311,-0.571,-27.161,725.525,119.629
-2.422,0.341,-0.711,0.244,681.091,79.590
-2.669,0.197,-1.204,20.142,646.423,57.190
-2.749,0.128,-1.506,27.954,531.860,36.072
-2.834,0.266,-2.194,10.254,454.590,38.269
-2.719,0.397,-2.562,4.761,275.269,31.006
-1.872,0.544,-3.036,33.081,159.058,17.883
-1.303,0.352,-2.305,49.194,45.654,5.737
0.279,0.057,-0.089,-48.523,-7.324,15.930
0.779,0.120,0.318,-83.618,14.832,22.888
0.901,0.285,0.214,-70.129,65.308,9.460
-0.016,0.577,-0.807,-39.734,84.045,-4.456
-0.685,0.570,-1.564,68.420,12.756,-40.222
-1.060,0.303,-1.598,94.543,-48.218,-40.771
-0.946,0.230,-1.033,36.255,-42.664,-14.282
-0.427,0.438,-0.607,-0.244,-10.254,2.014
-0.150,0.514,-0.791,-25.635,15.503,5.127
0.112,0.323,-0.928,-17.578,7.446,2.747
0.007,0.227,-0.845,-10.559,-1.160,3.479
-0.418,0.304,-0.947,9.216,-3.418,4.883
-0.520,0.393,-1.042,20.569,-4.761,1.953
-0.530,0.441,-1.044,13.245,-5.615,-4.883
-0.368,0.388,-0.918,2.014,-2.625,-5.310
-0.274,0.350,-0.885,-18.677,-1.526,-1.953
-0.245,0.321,-0.844,-25.208,-4.272,-0.183
-0.279,0.340,-0.826,-22.827,-2.808,1.038
-0.349,0.404,-0.831,-16.296,-0.488,2.869
-0.369,0.422,-0.864,-9.827,0.061,-4.700
-0.407,0.351,-0.960,-6.470,-3.235,-10.010
-0.432,0.299,-0.998,0.549,-19.653,-11.780
-0.502,0.249,-0.995,0.793,-31.311,-9.827
-0.547,0.245,-0.976,3.235,-51.880,-5.127
-0.632,0.303,-0.981,4.395,-58.716,-4.944
-0.713,0.353,-1.006,1.404,-65.918,-9.583
-0.800,0.388,-1.060,3.540,-90.759,-31.921
-0.975,0.397,-1.217,6.104,-113.770,-42.603
-1.072,0.379,-1.279,7.690,-172.424,-63.782
-1.226,0.353,-1.410,2.625,-201.538,-69.458
-1.269,0.384,-1.509,-16.663,-271.606,-77.209
-1.363,0.460,-1.688,-16.602,-323.608,-79.956
-1.459,0.451,-1.722,-6.958,-448.914,-106.995
-1.729,0.166,-1.755,-15.137,-513.672,-122.620
-1.810,-0.074,-1.743,-64.758,-632.996,-103.027
-1.781,-0.284,-1.640,-97.229,-687.073,-50.903
-1.757,-0.165,-1.542,-171.692,-786.011,95.581
-1.949,0.354,-1.158,-199.036,-828.613,154.480
-2.163,0.647,-0.907,-187.622,-896.851,209.473
-2.710,0.901,-0.411,-138.489,-919.739,201.233
-3.035,0.831,-0.139,-17.578,-977.844,164.734
-3.861,0.603,1.098,31.311,-1040.222,145.325
-4.000,0.577,2.017,55.481,-1113.708,122.620
-3.960,0.680,2.978,-46.692,-1024.719,115.845
-2.948,0.930,3.949,-114.319,-844.116,111.938
-2.324,0.847,3.576,-141.907,-464.111,80.017
-1.553,0.762,2.397,-141.724,-367.065,87.341
-1.331,1.087,2.386,-89.905,-327.087,130.310
-0.822,1.832,3.216,-24.109,-298.035,120.789
-0.571,1.735,3.362,81.055,-144.104,21.606
-0.270,0.804,2.615,75.928,-57.190,-22.949
-0.150,0.463,2.038,21.973,53.101,-27.527
-0.059,0.385,1.148,11.963,73.242,-5.798
-0.034,0.511,0.926,8.240,76.538,13.794
-0.032,0.609,0.806,-1.282,57.434,26.428
-0.063,0.656,0.764,-7.019,45.471,22.644
-0.086,0.622,0.820,-13.611,30.334,13.000
-0.124,0.574,0.931,-16.296,28.748,12.573
-0.121,0.593,0.949,-19.653,36.072,18.921
-0.088,0.648,0.909,-17.334,40.649,20.630
-0.065,0.660,0.879,-6.470,44.617,19.470
-0.031,0.667,0.819,-2.869,43.945,18.616
-0.025,0.680,0.814,-4.639,41.809,17.639
-0.017,0.696,0.809,-17.578,38.086,13.855
-0.016,0.687,0.766,-19.348,36.377,11.536
-0.007,0.653,0.755,-13.916,33.081,3.784
-0.003,0.555,0.733,-12.695,32.410,0.977
-0.003,0.531,0.732,-18.005,29.541,6.226
-0.006,0.544,0.748,-22.644,27.832,8.545
-0.006,0.574,0.749,-21.912,28.870,4.333
-0.039,0.579,0.684,-12.207,29.358,1.648
-0.039,0.562,0.647,-0.977,26.611,3.479
-0.015,0.510,0.657,10.254,14.099,6.836
-0.016,0.471,0.675,8.423,9.338,5.676
-0.010,0.459,0.686,-4.883,5.493,11.475
0.005,0.505,0.706,-8.728,3.784,14.832
0.001,0.542,0.727,-5.432,1.770,14.343
-0.015,0.612,0.750,-4.395,2.441,12.146
-0.015,0.619,0.742,-1.099,4.028,4.578
-0.011,0.572,0.723,1.892,3.784,1.770
-0.017,0.553,0.722,2.197,2.441,1.648
-0.024,0.546,0.723,2.686,-1.282,3.906
-0.038,0.553,0.750,3.784,-2.808,4.883
-0.035,0.560,0.766,-0.977,-3.662,6.226
-0.019,0.565,0.754,-3.662,-3.357,5.920
-0.020,0.574,0.747,-7.629,-4.944,6.470
-0.034,0.620,0.771,-10.193,-6.348,6.592
-0.038,0.641,0.786,-12.817,-7.263,4.456
-0.027,0.612,0.812,-11.597,-6.531,2.869
-0.022,0.592,0.808,-15.564,-4.639,2.136
-0.026,0.612,0.803,-16.602,-4.333,2.319
-0.033,0.629,0.817,-12.756,-3.845,2.991
-0.037,0.624,0.825,-1.099,-0.916,3.723
-0.029,0.600,0.810,0.488,0.671,3.174
-0.027,0.608,0.793,-5.005,2.625,2.625

-0.204,0.979,1.569,43.640,93.384,-37.109
-0.225,1.024,1.627,65.247,136.719,-54.016
-0.232,1.062,1.765,80.139,159.607,-63.843
-0.242,1.090,1.913,88.928,212.708,-86.670
-0.389,1.013,2.332,91.187,249.145,-101.990
-0.563,0.922,2.612,88.379,353.149,-118.103
-0.840,0.858,3.099,86.121,423.706,-121.521
-0.916,0.792,3.176,90.942,500.854,-127.075
-1.051,0.683,3.149,80.139,645.447,-131.348
-1.383,0.455,2.829,60.181,713.013,-127.197
-1.546,0.352,2.441,34.058,838.013,-108.948
-1.756,0.130,1.351,48.401,885.254,-93.384
-1.820,0.062,0.866,81.238,929.016,-41.687
-1.999,-0.031,0.323,86.182,932.312,-13.672
-2.110,-0.070,0.188,53.650,931.152,27.588
-2.431,-0.104,-0.253,38.208,924.988,46.204
-2.483,-0.052,-0.562,42.053,904.846,66.040
-2.437,0.038,-0.826,70.190,808.838,101.379
-2.405,0.190,-1.055,73.059,750.183,110.718
-2.391,0.208,-1.081,69.824,631.897,108.459
-2.394,0.220,-1.134,55.481,571.106,103.821
-2.412,0.246,-1.204,1.343,437.134,88.135
-2.451,0.337,-1.370,-25.574,366.760,75.317
-2.386,0.446,-1.661,-46.692,201.721,30.579
-1.822,0.603,-2.273,-18.250,85.510,3.113
-1.186,0.407,-1.603,-31.799,-45.532,-8.179
-0.013,0.036,0.060,-62.073,-21.118,5.676
0.281,0.098,0.254,-70.496,20.813,18.433
0.250,0.274,-0.110,-34.546,56.824,10.071
-0.496,0.482,-1.385,1.221,27.588,-10.681
-0.753,0.414,-1.453,29.663,-50.903,-41.931
-0.868,0.212,-0.757,20.386,-51.697,-39.978
-0.736,0.247,-0.615,10.071,-13.672,-13.123
-0.447,0.444,-0.858,7.874,-7.385,-7.263
-0.356,0.472,-0.934,4.883,-12.878,-4.272
-0.314,0.345,-0.898,5.310,-13.062,-1.892
-0.327,0.307,-0.894,15.747,-7.690,6.226
-0.483,0.381,-0.856,16.479,-5.920,7.751
-0.546,0.426,-0.837,2.563,-0.244,0.061
-0.502,0.395,-0.859,-5.493,4.700,-5.310
-0.437,0.340,-0.877,-9.888,9.033,-8.484
-0.408,0.309,-0.872,-5.615,11.719,-5.310
-0.417,0.328,-0.856,-1.526,9.644,-1.709
-0.417,0.349,-0.848,3.662,2.197,1.648
-0.444,0.387,-0.782,4.333,0.732,0.244
-0.487,0.402,-0.759,2.014,2.197,-5.005
-0.546,0.390,-0.782,0.244,3.113,-8.301
-0.552,0.357,-0.807,-3.174,-1.587,-15.198
-0.587,0.283,-0.838,-5.920,-7.019,-17.090
-0.644,0.272,-0.841,-11.658,-22.461,-16.357
-1.011,0.352,-0.821,-17.151,-32.898,-18.433
-1.329,0.416,-0.816,16.479,-65.430,-62.317
-2.094,0.467,-1.009,46.326,-95.825,-100.342
-2.469,0.496,-1.358,74.890,-145.325,-129.944
-2.691,0.433,-1.749,145.447,-295.593,-172.424
-2.512,0.319,-2.132,144.409,-379.700,-171.814
-2.348,0.412,-1.950,52.490,-547.913,-127.869
-2.304,0.504,-1.183,13.306,-610.535,-110.901
-2.276,0.429,-0.860,-4.089,-667.664,-91.003
-1.927,0.289,-0.511,-13.000,-693.420,-75.195
-1.830,0.244,-0.489,-51.086,-807.068,-48.889
-2.074,0.286,-0.570,-79.285,-886.352,-41.565
-2.362,0.412,-0.510,-127.930,-1040.833,-24.597
-3.129,0.718,-0.195,-122.498,-1100.647,-19.531
-3.633,0.821,0.080,-74.524,-1191.956,-18.982
-4.000,0.548,1.462,-6.897,-1244.812,-44.250
-4.000,0.243,2.648,33.508,-1268.738,-164.124
-3.738,0.312,4.000,-113.159,-1106.201,-150.574
-3.101,0.475,4.000,-243.530,-857.300,-98.877
-1.660,0.140,3.494,-163.452,-414.856,-22.766
-1.217,0.016,3.160,-80.688,-312.134,13.062
-0.872,0.243,3.088,-44.861,-219.055,101.562
-0.345,1.116,3.108,-51.086,-155.701,115.417
-0.170,1.260,2.733,-12.207,0.671,59.021
-0.075,0.859,1.662,30.151,47.852,24.170
-0.044,0.610,1.318,59.265,62.683,11.597
0.035,0.474,0.995,38.208,56.763,27.649
0.033,0.563,0.879,3.967,36.926,43.884
0.001,0.718,0.872,-1.892,21.179,39.124
-0.012,0.704,0.938,-0.183,8.972,31.189
-0.013,0.666,0.991,-2.380,0.183,20.081
-0.039,0.612,1.072,-14.709,-2.136,18.494
-0.052,0.628,1.115,-39.124,1.709,19.653
-0.050,0.710,1.102,-43.030,9.705,19.714
-0.042,0.723,1.050,-28.870,24.963,18.433
0.007,0.718,0.944,-21.545,28.137,16.418
0.023,0.721,0.929,-17.029,28.809,11.230
0.021,0.702,0.924,-6.104,27.649,-2.319
0.008,0.601,0.895,0.122,26.550,-3.723
0.010,0.572,0.874,-7.385,26.550,-3.296
0.007,0.533,0.841,-14.771,27.222,-5.493
-0.008,0.498,0.836,-21.118,29.236,-8.850
-0.005,0.466,0.828,-26.062,31.372,-8.972
-0.004,0.467,0.817,-24.719,35.217,-6.409
-0.014,0.451,0.777,-14.282,36.255,-2.686
-0.002,0.459,0.745,-7.080,37.231,4.028
0.019,0.490,0.682,-11.353,35.767,4.761
0.027,0.480,0.659,-14.404,32.166,5.249
0.043,0.472,0.642,-14.709,21.179,6.592
0.063,0.494,0.636,-12.268,14.832,5.920
0.056,0.503,0.651,-13.245,1.831,4.944
0.046,0.523,0.705,-14.465,-3.418,5.249
0.044,0.541,0.733,-8.240,-8.362,5.615
0.036,0.542,0.748,-5.798,-9.888,5.188
0.023,0.521,0.771,-4.456,-11.780,4.578
0.002,0.525,0.841,-10.132,-12.085,6.042
0.001,0.545,0.844,-11.536,-9.949,7.629
0.004,0.553,0.828,-0.305,-6.226,8.301
0.010,0.545,0.817,3.723,-5.859,7.019
0.013,0.547,0.811,1.282,-5.493,5.005
0.009,0.556,0.786,-1.831,-5.615,5.005
0.009,0.555,0.784,-4.517,-7.568,5.432
0.015,0.548,0.792,-1.892,-8.240,4.883
0.013,0.552,0.792,1.709,-9.155,3.540
0.012,0.571,0.815,2.686,-9.583,3.113
0.007,0.571,0.835,4.761,-9.583,2.502
0.005,0.569,0.848,5.188,-7.202,3.601
0.005,0.588,0.851,2.502,-5.493,4.578
0.006,0.600,0.849,-1.465,-3.845,5.676

-0.158,0.960,1.693,36.987,82.886,-27.954
-0.221,0.975,1.837,42.542,131.592,-45.410
-0.406,1.016,2.318,23.315,169.189,-58.289
-0.576,0.945,2.612,-3.357,292.725,-98.022
-1.057,0.647,3.280,-15.259,385.132,-116.150
-1.331,0.511,3.391,-18.677,621.582,-120.239
-1.664,0.480,2.806,11.108,728.943,-96.924
-1.632,0.539,2.253,54.626,800.598,-62.256
-1.264,0.586,1.357,99.609,825.500,8.118
-1.162,0.548,1.110,80.933,808.838,30.884
-1.121,0.493,1.011,9.094,788.391,52.795
-1.146,0.511,0.891,-38.513,793.213,57.800
-1.183,0.552,0.729,-42.786,810.059,54.626
-1.294,0.535,0.322,-6.165,813.843,46.997
-1.408,0.433,0.039,40.894,793.030,36.560
-1.846,0.158,-0.351,46.082,766.846,45.410
-1.994,0.060,-0.451,46.143,740.662,68.848
-1.987,0.037,-0.513,12.512,681.518,115.845
-1.938,0.051,-0.541,-21.667,640.991,118.530
-2.014,0.007,-0.583,-46.936,556.213,103.027
-2.567,-0.089,-0.697,-53.406,513.306,95.886
-3.108,-0.045,-1.276,-108.826,365.723,79.041
-3.423,0.248,-3.485,-224.792,142.883,80.750
-2.860,0.352,-2.875,-214.905,-88.989,21.240
-1.339,0.077,-0.691,-30.212,15.259,-11.353
-0.161,-0.118,-0.384,60.608,67.810,23.621
1.610,0.015,-0.054,31.006,38.574,36.987
1.417,0.204,0.361,-4.700,36.621,35.034
0.665,0.380,0.505,0.061,112.122,7.385
-1.112,0.824,-1.637,42.419,91.187,-8.667
-1.347,0.939,-2.246,59.998,-109.497,-18.250
-1.163,0.646,-0.826,30.334,-96.375,-24.719
-0.927,0.535,-0.275,-25.635,16.235,-8.240
-0.147,0.467,-0.691,-25.757,27.527,8.118
0.075,0.430,-0.953,-25.757,7.568,16.602
-0.036,0.295,-0.856,-27.100,0.366,14.343
-0.235,0.306,-0.793,-17.273,1.831,11.658
-0.613,0.361,-0.885,-3.784,1.404,4.944
-0.665,0.371,-0.904,8.728,0.366,-5.676
-0.557,0.400,-0.853,10.559,9.460,-18.616
-0.458,0.409,-0.824,9.277,15.686,-15.869
-0.366,0.429,-0.801,8.484,19.958,-1.648
-0.295,0.507,-0.736,7.507,19.775,1.160
-0.323,0.517,-0.736,5.920,14.771,-1.404
-0.417,0.501,-0.798,-0.305,10.681,-2.625
-0.464,0.477,-0.814,-11.292,5.920,-3.113
-0.497,0.404,-0.793,-12.634,5.249,-2.258
-0.471,0.389,-0.783,-13.916,4.089,1.404
-0.409,0.419,-0.747,-13.855,2.319,1.526
-0.417,0.422,-0.739,-16.296,-1.343,-5.859
-0.523,0.350,-0.777,-13.489,-3.235,-9.766
-0.606,0.324,-0.815,-8.789,-5.371,-12.268
-0.864,0.346,-0.911,5.676,-23.437,-17.822
-1.068,0.347,-0.942,17.883,-44.250,-25.757
-1.300,0.330,-0.978,36.499,-94.971,-38.391
-1.785,0.390,-1.277,35.828,-124.756,-48.706
-1.976,0.435,-1.474,42.114,-225.525,-77.637
-2.139,0.535,-1.738,41.443,-292.480,-84.717
-2.218,0.600,-1.753,21.606,-424.988,-110.413
-2.454,0.530,-1.711,12.085,-491.638,-133.301
-2.489,0.360,-1.759,-17.456,-648.560,-161.316
-2.453,-0.023,-1.853,-57.312,-741.882,-151.733
-2.471,-0.053,-1.779,-160.034,-922.913,-77.271
-2.644,0.269,-1.432,-196.777,-999.329,-18.860
-2.912,0.446,-1.204,-184.631,-1130.737,89.600
-3.808,0.746,-0.636,-141.113,-1193.604,120.239
-4.000,0.746,0.172,-70.129,-1252.319,130.615
-4.000,0.277,3.285,93.445,-1313.965,61.646
-3.859,0.346,4.000,86.853,-1246.338,-1.831
-3.274,0.599,4.000,-142.090,-720.337,-11.902
-1.627,0.511,3.260,-221.069,-444.519,10.498
-1.241,0.281,2.267,-121.826,-236.389,81.970
-0.983,0.637,1.790,-50.964,-277.588,122.253
-0.865,1.030,2.481,-1.343,-325.561,121.155
-0.479,1.339,3.079,-10.986,-254.456,82.092
-0.293,1.183,2.553,-7.812,-73.914,16.907
-0.109,0.620,1.453,44.617,-35.706,9.766
-0.054,0.424,1.301,89.416,-33.325,16.235
0.082,0.509,1.333,50.171,-39.551,40.771
0.072,0.597,1.293,18.127,-26.550,45.227
0.049,0.668,1.203,-13.611,0.366,41.443
0.003,0.789,1.035,-13.611,3.967,40.588
-0.014,0.828,1.039,-2.869,-0.183,34.363
-0.027,0.893,1.133,-7.812,-3.601,28.015
-0.042,0.854,1.174,-20.874,0.305,10.437
-0.040,0.716,1.063,-26.794,7.507,7.019
-0.018,0.700,0.984,-31.067,12.878,7.874
0.009,0.723,0.969,-26.123,15.686,7.812
0.018,0.718,0.973,-20.264,19.165,4.456
0.026,0.703,0.944,-4.517,29.358,0.427
0.014,0.629,0.850,2.319,30.823,-0.549
0.004,0.588,0.808,-11.963,27.710,0.793
0.029,0.611,0.747,-22.766,25.757,1.770
0.023,0.611,0.746,-9.827,20.447,-5.310
-0.022,0.504,0.766,-0.122,18.982,-9.155
-0.037,0.458,0.768,0.916,18.860,-9.033
-0.036,0.440,0.769,-13.367,21.301,-1.160
-0.004,0.476,0.709,-18.982,23.010,3.113
0.007,0.510,0.663,-8.850,21.912,6.836
0.016,0.500,0.648,-0.061,18.860,6.714
0.026,0.477,0.661,1.404,12.878,8.057
0.051,0.491,0.684,-3.296,11.169,8.728
0.045,0.508,0.691,-10.132,7.568,7.629
0.035,0.535,0.696,-7.507,5.127,6.653
0.026,0.539,0.715,-1.099,2.197,5.920
0.019,0.536,0.741,8.606,-2.930,4.761
0.013,0.502,0.763,8.728,-3.418,3.540
0.014,0.491,0.765,-3.296,-4.150,5.859
0.021,0.521,0.773,-10.437,-5.066,7.690
0.017,0.527,0.783,-8.667,-6.714,7.751
0.010,0.542,0.816,-6.409,-6.531,7.812
0.011,0.555,0.812,-2.502,-5.432,7.385
0.005,0.583,0.816,-0.366,-6.653,8.057
0.008,0.590,0.827,0.916,-7.751,8.240
0.009,0.594,0.821,1.465,-7.080,6.531
0.002,0.599,0.828,2.258,-7.568,6.409
0.004,0.594,0.851,4.150,-6.714,6.226
0.005,0.574,0.868,3.235,-4.272,5.554
0.004,0.582,0.858,-5.005,-0.122,7.385

-0.188,0.946,1.767,44.067,63.232,-25.391
-0.228,0.983,1.850,60.486,109.436,-37.231
-0.354,1.093,2.044,66.956,131.897,-43.823
-0.475,1.158,2.225,86.304,168.701,-58.960
-0.786,1.239,2.800,98.694,188.416,-68.604
-0.964,1.206,3.156,104.614,219.727,-82.458
-1.345,0.937,3.616,76.050,344.421,-116.699
-1.502,0.761,3.442,46.570,437.561,-127.380
-1.630,0.573,2.999,11.597,635.742,-120.178
-1.864,0.094,1.850,29.663,723.022,-106.018
-1.945,-0.131,1.366,73.059,856.750,-51.453
-2.120,-0.266,0.635,40.649,898.621,-15.564
-2.248,-0.242,0.365,-49.133,946.594,33.020
-2.489,-0.185,-0.065,-66.711,959.717,41.565
-2.542,-0.158,-0.275,-70.984,956.665,38.269
-2.599,-0.149,-0.520,-97.290,940.491,22.949
-2.689,-0.142,-0.653,-98.999,900.391,0.244
-2.407,-0.084,-1.280,-24.780,858.032,12.634
-2.333,-0.153,-1.542,54.321,792.847,27.588
-2.040,-0.168,-1.716,43.701,649.475,66.895
-1.972,-0.089,-1.692,-0.854,579.590,90.515
-2.057,-0.013,-1.604,-14.709,434.753,98.816
-2.358,0.257,-1.697,-16.357,367.004,84.534
-2.561,0.520,-2.365,11.719,138.550,21.667
-1.895,0.553,-2.113,0.061,-5.920,-16.846
-1.201,0.201,-1.228,-123.047,-55.481,-14.648
0.207,-0.097,-0.196,-94.116,-24.536,0.549
0.668,-0.031,-0.061,-16.235,4.395,0.244
0.397,0.209,-0.143,-10.376,25.818,-1.282
-0.099,0.401,-0.631,35.828,63.965,-14.221
-1.146,0.586,-1.824,36.499,39.185,-26.001
-1.271,0.404,-1.746,30.273,-3.113,-30.579
-0.838,0.121,-0.880,73.730,-41.321,-29.541
-0.524,0.175,-0.704,59.082,-37.354,-12.695
-0.230,0.322,-0.672,-31.372,-17.395,16.418
-0.057,0.440,-0.694,-37.964,-3.235,12.817
-0.127,0.341,-0.737,5.005,13.367,-7.874
-0.370,0.177,-0.944,14.282,12.756,-14.587
-0.477,0.207,-0.993,9.094,-0.305,-5.005
-0.569,0.391,-0.913,1.221,-3.601,3.174
-0.555,0.420,-0.871,6.165,-1.526,8.057
-0.444,0.355,-0.839,11.108,0.000,6.348
-0.407,0.326,-0.834,9.399,1.282,-0.427
-0.395,0.325,-0.823,8.179,1.038,-3.418
-0.414,0.317,-0.831,6.775,-0.183,-6.042
-0.444,0.299,-0.846,-0.061,-4.395,-9.033
-0.516,0.301,-0.854,-6.104,-7.202,-7.751
-0.574,0.326,-0.855,-13.977,-19.104,-7.385
-0.805,0.341,-0.887,-9.644,-29.175,-13.977
-0.977,0.315,-0.941,8.179,-57.861,-36.438
-1.336,0.281,-1.190,19.043,-79.590,-49.438
-1.476,0.313,-1.381,34.241,-158.447,-73.730
-1.677,0.493,-1.704,37.231,-218.750,-72.754
-1.803,0.574,-1.736,20.508,-349.426,-66.467
-2.166,0.707,-1.619,5.798,-412.781,-77.820
-2.316,0.765,-1.494,-4.333,-543.884,-119.080
-2.383,0.629,-1.303,-5.737,-599.854,-145.569
-2.304,0.421,-1.322,-46.631,-691.711,-171.631
-1.970,0.008,-1.474,-80.383,-741.028,-157.837
-1.844,-0.101,-1.493,-161.072,-862.732,-81.970
-2.132,-0.030,-1.210,-202.637,-931.641,-25.391
-2.516,0.119,-0.972,-225.830,-997.314,32.288
-3.574,0.515,-0.261,-191.040,-1106.873,120.422
-4.000,0.393,0.681,-100.647,-1168.091,120.544
-4.000,0.038,2.021,153.015,-1273.438,-14.893
-3.731,-0.088,4.000,87.341,-1165.039,-41.077
-3.034,0.260,4.000,-303.223,-663.513,26.794
-1.654,0.613,3.138,-354.858,-422.974,67.078
-1.359,0.510,2.212,-134.399,-231.873,134.033
-0.935,0.790,1.715,-57.068,-257.080,155.701
-0.737,1.109,2.199,-37.537,-298.218,116.943
-0.512,1.185,2.844,-14.771,-254.578,69.153
-0.411,0.908,2.673,11.108,-115.356,12.756
-0.122,0.384,1.933,10.925,-59.998,18.311
-0.017,0.356,1.639,6.653,-24.414,37.048
0.019,0.468,1.464,4.822,6.104,58.167
-0.015,0.666,1.253,4.456,13.367,56.152
-0.015,0.733,1.151,-7.141,13.306,48.279
-0.062,0.770,1.068,-1.465,6.836,41.748
-0.086,0.733,1.074,3.967,-5.798,27.100
-0.109,0.656,1.108,-0.305,-8.057,21.667
-0.110,0.640,1.115,-8.484,-3.540,19.531
-0.097,0.632,1.078,-10.376,1.038,21.484
-0.097,0.637,1.034,-12.146,6.287,22.827
-0.091,0.641,0.987,-12.634,14.160,20.081
-0.070,0.645,0.911,-9.949,14.099,16.052
-0.062,0.629,0.903,1.343,14.893,5.981
-0.051,0.575,0.911,2.502,16.968,3.052
-0.061,0.542,0.901,-7.507,18.555,1.892
-0.077,0.519,0.902,-13.550,18.860,2.502
-0.084,0.517,0.903,-12.573,22.095,1.282
-0.094,0.457,0.853,-6.287,24.780,0.244
-0.088,0.432,0.816,-3.540,26.917,0.732
-0.076,0.427,0.787,-4.639,27.710,3.174
-0.065,0.456,0.748,-3.601,26.733,2.991
-0.064,0.463,0.720,1.343,19.470,5.615
-0.045,0.474,0.717,5.981,13.428,5.554
-0.043,0.461,0.732,6.470,4.883,-0.793
-0.049,0.410,0.746,1.404,1.648,-1.099
-0.037,0.409,0.769,-2.075,-3.174,3.540
-0.039,0.445,0.811,-4.211,-3.784,3.967
-0.051,0.458,0.824,-8.179,-3.662,2.625
-0.056,0.470,0.836,-15.381,-2.563,-0.977
-0.065,0.491,0.853,-12.939,-2.441,-1.709
-0.067,0.482,0.866,0.305,-1.953,-2.136
-0.065,0.446,0.872,1.465,-0.427,-2.441
-0.063,0.442,0.859,-4.639,2.197,-0.305
-0.054,0.468,0.847,-6.531,2.258,1.099
-0.053,0.481,0.852,-9.583,1.770,1.099
-0.052,0.491,0.880,-7.751,2.197,0.977
-0.051,0.490,0.884,-1.343,4.822,-0.122
-0.050,0.474,0.879,0.916,5.981,-0.549
-0.048,0.473,0.882,1.526,6.958,0.488
-0.042,0.486,0.880,2.258,8.362,3.601
-0.028,0.512,0.846,2.380,7.690,3.662
-0.024,0.524,0.842,0.732,3.906,3.723
-0.023,0.527,0.872,-2.441,2.625,2.991
-0.029,0.525,0.880,-10.925,3.113,0.610
-0.038,0.541,0.886,-13.672,4.028,-0.061

-0.168,0.826,1.606,33.264,93.628,-44.922
-0.194,0.783,1.630,64.026,147.705,-57.617
-0.260,0.767,1.800,67.139,175.232,-60.425
-0.273,0.785,1.901,84.595,243.408,-68.970
-0.309,0.847,2.163,96.069,286.011,-73.059
-0.322,0.866,2.338,100.037,398.071,-83.984
-0.341,0.639,2.327,99.854,458.862,-93.384
-0.349,0.447,2.159,101.196,509.216,-96.313
-0.314,0.314,1.982,96.558,571.838,-70.679
-0.256,0.293,1.818,85.266,588.501,-52.490
-0.253,0.356,1.857,41.565,626.892,-35.645
-0.330,0.350,1.813,23.437,658.508,-37.659
-0.391,0.243,1.575,28.320,714.355,-32.532
-0.431,0.066,1.004,35.339,728.699,-18.066
-0.489,0.037,0.856,19.897,739.075,16.357
-0.908,-0.063,0.524,13.000,745.239,29.663
-1.165,-0.109,0.271,18.921,753.113,44.189
-1.447,-0.091,-0.156,46.631,758.240,70.862
-1.566,-0.037,-0.320,59.082,748.169,87.891
-1.668,0.045,-0.509,73.120,697.815,125.488
-1.745,0.199,-0.891,71.655,658.447,139.282
-1.792,0.247,-1.034,47.791,560.730,143.555
-1.929,0.312,-1.050,31.738,505.310,129.700
-2.045,0.348,-0.963,-13.306,393.311,76.782
-2.470,0.277,-0.988,-15.930,335.510,47.852
-2.756,0.258,-1.467,35.217,188.904,-8.118
-2.224,0.599,-2.273,77.332,65.796,-33.203
-1.591,0.492,-1.847,-0.122,-89.416,-1.770
-0.087,0.126,-0.710,-54.138,-79.773,51.270
0.660,0.150,-0.202,-49.927,-53.772,86.548
0.974,0.271,0.294,-26.428,-19.836,54.810
0.326,0.590,0.319,-28.442,24.292,32.104
-0.338,0.744,-0.750,9.094,75.867,-10.620
-1.110,0.741,-2.282,35.828,-5.798,-36.987
-1.036,0.512,-1.697,-6.409,-91.064,-37.842
-0.679,0.176,-0.399,-29.602,-50.720,-11.047
-0.383,0.198,-0.491,-31.250,23.254,24.292
0.001,0.329,-1.060,-23.376,24.719,15.259
-0.029,0.318,-1.061,-2.747,1.709,-13.611
-0.285,0.276,-0.916,10.437,2.014,-14.404
-0.376,0.327,-0.930,24.231,9.338,-3.296
-0.525,0.473,-0.869,23.437,7.568,-0.427
-0.552,0.520,-0.811,17.334,7.996,0.488
-0.507,0.522,-0.804,-3.784,15.991,-2.991
-0.321,0.423,-0.874,-12.512,16.113,-5.737
-0.253,0.375,-0.885,-21.912,10.986,-2.563
-0.238,0.388,-0.806,-22.583,10.498,2.258
-0.307,0.402,-0.779,-13.367,10.620,2.319
-0.457,0.371,-0.816,-6.775,8.911,-2.258
-0.490,0.343,-0.856,-0.916,3.357,-9.094
-0.529,0.302,-0.895,-0.793,-0.854,-9.888
-0.537,0.317,-0.884,-4.639,-9.521,-12.817
-0.631,0.434,-0.908,-8.667,-13.855,-19.531
-0.735,0.523,-1.001,-12.512,-34.241,-50.293
-1.062,0.587,-1.312,-8.972,-57.861,-69.885
-1.241,0.534,-1.405,-0.366,-139.160,-96.558
-1.527,0.443,-1.388,0.610,-185.120,-103.943
-1.640,0.427,-1.345,-2.930,-229.675,-105.530
-1.734,0.425,-1.332,-25.269,-318.726,-102.051
-1.797,0.466,-1.491,-40.649,-371.582,-101.379
-1.781,0.481,-1.659,-69.519,-509.827,-100.952
-1.811,0.496,-1.952,-93.933,-594.849,-100.647
-1.989,0.450,-1.982,-148.193,-770.813,-90.393
-2.494,0.179,-1.825,-161.682,-841.492,-71.228
-2.639,0.045,-1.712,-189.087,-922.852,21.851
-2.728,0.247,-1.397,-219.971,-950.195,94.543
-2.969,0.490,-1.149,-234.436,-1023.437,200.867
-3.876,0.659,-0.207,-190.002,-1063.232,202.393
-4.000,0.580,0.508,-90.027,-1122.253,183.899
-4.000,0.599,2.132,-59.998,-1105.713,195.374
-3.990,0.785,2.737,-43.518,-961.548,176.453
-3.878,0.923,3.499,-58.289,-858.520,141.235
-3.554,1.152,3.728,-113.831,-748.840,124.146
-2.911,1.633,3.895,-199.524,-527.344,127.014
-1.411,1.928,4.000,-97.473,-423.645,95.703
-0.874,1.360,4.000,184.326,-220.642,-10.437
-0.216,-0.097,3.574,218.018,-99.121,-33.264
-0.129,-0.334,2.812,64.392,111.511,30.823
-0.145,0.210,1.121,-3.235,150.635,81.665
-0.107,0.634,0.583,-11.475,102.356,118.286
-0.025,1.057,0.350,14.771,54.504,93.750
-0.097,1.198,0.826,83.984,-33.325,4.578
-0.336,1.184,2.831,165.649,-33.020,-54.626
-0.225,0.119,1.748,126.709,30.029,-86.670
0.028,-0.059,0.505,-131.470,52.490,10.803
-0.103,0.282,0.873,-47.546,13.611,51.941
-0.171,0.561,1.009,24.109,22.339,64.209
-0.107,0.914,0.829,-27.588,29.846,49.255
-0.077,0.846,0.847,-33.997,14.587,3.174
-0.026,0.497,0.932,-18.066,11.841,-8.057
-0.008,0.427,0.926,-39.917,21.790,-12.451
-0.031,0.468,0.917,-52.979,26.917,-11.963
-0.046,0.472,0.888,-38.330,35.645,-7.263
-0.047,0.419,0.796,-24.475,37.781,-5.371
-0.052,0.396,0.777,-15.991,37.476,-4.517
-0.057,0.391,0.779,-12.634,33.020,-2.258
-0.061,0.376,0.780,-12.573,31.677,-1.953
-0.057,0.344,0.752,-13.428,31.311,-1.587
-0.045,0.332,0.677,-18.494,29.907,1.282
-0.039,0.352,0.662,-18.616,23.071,10.315
-0.029,0.414,0.682,-15.259,19.104,13.428
-0.031,0.442,0.676,-5.310,9.888,15.503
-0.023,0.451,0.722,7.507,4.883,14.526
-0.013,0.441,0.771,15.442,1.099,13.611
-0.005,0.454,0.805,6.897,-1.160,13.855
-0.010,0.522,0.843,3.540,-0.488,13.184
-0.016,0.542,0.854,0.061,0.916,9.644
-0.022,0.507,0.826,-2.014,0.366,7.812
-0.019,0.484,0.829,-2.380,-2.808,5.493
-0.031,0.493,0.870,-6.042,-2.991,5.066
-0.035,0.502,0.876,-3.967,-0.610,5.066
-0.037,0.483,0.872,1.099,0.488,4.578
-0.039,0.487,0.860,0.671,0.977,4.517
-0.043,0.496,0.854,-5.005,0.427,4.089
-0.041,0.503,0.870,-6.104,0.183,3.174
-0.038,0.496,0.868,-6.042,0.671,2.319
-0.036,0.512,0.856,-4.028,0.793,3.479
-0.033,0.526,0.853,-2.991,1.587,3.662
-0.019,0.519,0.822,-2.075,1.343,3.052

-0.291,0.860,1.859,33.386,139.160,-47.668
-0.347,0.895,1.986,57.129,207.703,-67.322
-0.479,0.819,2.293,67.383,250.549,-76.050
-0.533,0.726,2.395,77.881,363.281,-87.585
-0.662,0.518,2.197,89.111,425.537,-87.708
-0.662,0.459,2.010,106.506,525.574,-69.397
-0.584,0.406,1.723,100.891,557.312,-58.655
-0.529,0.364,1.629,82.214,581.299,-52.429
-0.491,0.280,1.503,49.622,627.014,-46.448
-0.450,0.132,1.128,43.579,649.414,-36.316
-0.396,0.110,0.903,40.649,677.307,0.061
-0.312,0.111,0.569,34.424,678.467,18.372
-0.331,0.106,0.494,4.456,677.917,42.175
-0.400,0.124,0.409,-3.235,681.457,47.607
-0.443,0.117,0.310,26.794,690.002,56.335
-0.686,0.111,0.006,44.373,690.918,64.392
-0.858,0.100,-0.153,52.979,689.026,73.914
-1.074,0.112,-0.486,63.965,672.058,92.590
-1.102,0.120,-0.650,75.684,652.588,105.835
-1.174,0.087,-0.740,78.735,585.754,140.808
-1.351,0.113,-0.716,49.377,551.392,157.654
-1.493,0.224,-0.707,-33.020,483.276,159.851
-1.983,0.338,-0.789,-39.673,445.068,141.968
-2.487,0.390,-1.042,-16.235,341.003,92.529
-3.285,0.948,-2.938,-1.343,180.115,49.133
-2.635,0.886,-2.641,-69.153,-151.306,-38.269
-1.280,0.170,-0.998,-25.391,-86.487,-41.138
-0.370,-0.093,-0.645,32.104,5.249,-11.047
1.242,-0.123,-0.142,33.142,11.780,49.316
1.087,0.031,0.265,0.427,-0.610,40.710
0.511,0.237,0.367,11.780,82.336,37.598
-0.911,0.972,-1.556,51.636,101.257,21.240
-1.129,1.094,-2.075,61.829,-54.993,-53.040
-0.918,0.445,-0.915,40.405,-75.012,-61.279
-0.716,0.203,-0.430,-5.249,5.127,-3.296
-0.087,0.396,-0.734,-23.376,27.527,26.123
0.068,0.531,-0.906,-23.987,17.151,25.146
-0.116,0.468,-0.813,-15.747,8.484,8.667
-0.303,0.377,-0.822,2.747,2.441,-15.808
-0.494,0.357,-0.960,7.019,3.296,-15.320
-0.502,0.398,-0.928,7.874,6.104,-9.155
-0.468,0.445,-0.843,4.456,12.146,0.366
-0.354,0.517,-0.761,2.441,12.573,-0.916
-0.315,0.504,-0.794,-1.343,8.850,-7.385
-0.318,0.432,-0.841,-3.601,7.202,-7.874
-0.350,0.405,-0.839,-1.221,4.456,-5.432
-0.427,0.400,-0.837,-0.305,2.319,-4.395
-0.453,0.426,-0.828,-8.301,-1.282,-2.747
-0.502,0.451,-0.827,-15.808,-3.113,-3.601
-0.551,0.448,-0.855,-31.189,-7.996,-10.925
-0.809,0.450,-0.943,-30.762,-15.503,-16.663
-1.011,0.434,-1.004,-3.540,-51.208,-43.213
-1.430,0.393,-1.265,13.123,-81.360,-57.678
-1.644,0.433,-1.448,22.339,-122.009,-71.533
-2.047,0.597,-1.745,15.015,-235.901,-91.370
-2.142,0.684,-1.846,3.296,-301.514,-98.022
-2.159,0.723,-1.898,-23.132,-444.702,-128.540
-2.047,0.514,-1.890,-31.372,-522.217,-150.146
-1.996,0.320,-1.845,-82.825,-689.758,-157.166
-1.982,0.062,-1.663,-120.850,-772.949,-129.700
-2.020,0.066,-1.511,-174.255,-901.611,-40.100
-2.215,0.271,-1.042,-191.467,-943.542,9.583
-2.409,0.445,-0.808,-191.956,-1003.723,105.774
-3.136,0.701,-0.224,-135.681,-1029.480,125.244
-3.662,0.554,0.536,61.096,-1110.413,67.261
-3.924,-0.023,2.612,125.854,-1148.254,4.517
-3.385,0.005,3.407,-13.245,-935.974,-13.977
-1.934,0.620,3.663,-148.437,-718.018,15.198
-1.470,0.758,3.125,-210.022,-519.958,34.851
-1.060,0.452,2.068,-108.215,-326.660,57.007
-0.890,0.436,1.949,-58.228,-310.913,73.425
-0.726,0.621,2.092,-54.260,-294.189,84.167
-0.484,0.987,2.332,-45.410,-257.141,65.002
-0.417,0.896,2.230,6.287,-157.593,21.606
-0.239,0.489,1.859,18.982,-119.812,14.648
-0.100,0.383,1.722,-7.446,-62.073,25.208
0.001,0.410,1.354,-31.250,-41.321,37.170
0.019,0.564,1.222,-45.837,-28.259,53.345
0.027,0.753,1.190,-27.832,-27.649,50.537
0.010,0.760,1.186,-6.042,-20.264,37.720
-0.032,0.791,1.143,-10.193,-16.357,32.654
-0.046,0.788,1.125,-13.855,-13.794,26.489
-0.053,0.705,1.115,-12.634,-7.690,15.503
-0.045,0.682,1.100,-14.404,-2.869,14.648
-0.032,0.685,1.079,-18.066,7.812,16.479
-0.021,0.711,1.013,-20.386,11.658,15.991
-0.016,0.716,0.984,-20.813,16.296,11.230
-0.012,0.676,0.904,-17.883,17.883,7.263
-0.006,0.651,0.863,-15.503,16.541,2.502
-0.005,0.631,0.866,-15.564,13.733,0.427
-0.014,0.602,0.894,-7.019,12.085,-5.310
-0.042,0.531,0.890,-5.493,14.771,-4.150
-0.042,0.530,0.876,-5.554,18.738,-1.099
-0.033,0.527,0.860,-8.240,27.161,0.122
-0.015,0.502,0.791,-11.169,29.968,0.549
-0.019,0.505,0.772,-10.315,28.076,6.226
-0.010,0.500,0.759,-6.104,26.611,6.653
-0.002,0.483,0.731,0.732,25.452,3.601
0.001,0.483,0.673,-0.610,22.766,5.920
0.009,0.502,0.682,1.465,11.292,10.803
0.013,0.504,0.740,0.366,7.263,8.789
0.015,0.502,0.740,-5.493,6.897,5.432
0.013,0.510,0.709,-20.264,5.127,5.615
0.009,0.537,0.702,-14.771,-2.014,9.094
0.012,0.533,0.765,7.996,-12.268,8.423
-0.006,0.524,0.847,6.042,-10.010,5.249
-0.016,0.531,0.832,-5.615,-2.441,3.174
-0.017,0.537,0.815,-0.916,-1.953,4.333
-0.018,0.535,0.828,7.141,-2.563,3.784
-0.020,0.511,0.838,4.211,-1.221,2.441
-0.013,0.510,0.841,0.732,1.099,2.441
0.000,0.520,0.830,-2.136,5.310,3.784
0.007,0.541,0.781,1.038,5.249,3.906
0.003,0.559,0.783,3.723,1.404,4.578
-0.007,0.584,0.807,1.404,-0.061,3.967
-0.007,0.581,0.815,-0.061,0.488,3.052
0.000,0.594,0.810,-2.197,1.648,2.441
0.005,0.606,0.798,-3.418,2.319,-0.305
0.001,0.626,0.801,0.977,1.160,-2.136

-0.222,1.049,1.953,15.076,97.473,-45.410
-0.286,1.042,2.105,56.274,171.570,-73.059
-0.483,0.975,2.431,79.590,216.675,-81.726
-0.577,0.913,2.555,108.704,336.670,-92.041
-0.713,0.724,2.522,105.103,406.372,-93.262
-0.823,0.683,2.489,61.157,540.710,-89.844
-1.072,0.658,2.501,37.415,607.178,-93.323
-1.123,0.626,2.404,14.160,673.828,-101.746
-1.123,0.572,2.125,-5.676,781.372,-116.821
-1.032,0.367,1.323,23.071,805.542,-112.061
-0.923,0.286,1.030,76.355,805.786,-77.271
-0.819,0.226,0.812,69.397,805.359,-59.021
-0.908,0.168,0.713,36.255,826.782,-25.696
-1.214,0.037,0.382,28.015,839.844,-7.385
-1.354,-0.042,0.161,35.645,845.703,26.306
-1.711,-0.217,-0.283,44.861,833.801,44.495
-1.863,-0.223,-0.469,57.312,812.134,66.589
-1.973,-0.012,-0.797,52.368,744.934,120.728
-1.990,0.119,-0.958,35.583,696.411,140.564
-2.017,0.205,-1.072,6.409,564.941,140.198
-2.217,0.234,-1.102,-13.062,491.821,126.099
-2.576,0.266,-1.150,-47.180,335.571,74.036
-3.338,0.649,-2.597,-8.545,191.589,25.208
-2.664,0.591,-2.201,5.737,-117.249,-55.603
-1.470,-0.078,-0.838,-30.640,-98.633,-27.954
-0.632,-0.144,-0.571,-22.461,-0.977,63.354
1.101,0.152,-0.329,-9.338,-5.798,64.514
1.136,0.237,0.020,-10.071,0.732,7.446
0.185,0.268,0.016,-0.305,52.063,-1.892
-0.537,0.455,-0.789,22.156,102.844,-9.277
-1.138,0.709,-1.680,85.327,18.433,-56.335
-1.105,0.607,-1.493,61.279,-58.105,-61.829
-0.935,0.305,-0.898,-18.066,-51.453,-12.756
-0.461,0.152,-0.565,-36.133,-17.944,18.555
-0.177,0.305,-0.772,-40.710,5.981,33.752
0.022,0.451,-0.934,-29.541,2.991,16.296
-0.062,0.375,-0.861,5.615,0.244,-16.785
-0.349,0.262,-0.860,18.311,3.296,-20.569
-0.468,0.314,-0.927,23.621,5.615,-11.169
-0.526,0.456,-0.927,15.808,4.517,-4.944
-0.511,0.465,-0.869,-5.615,6.714,1.709
-0.413,0.375,-0.860,-9.827,8.545,3.235
-0.338,0.348,-0.886,-11.047,8.545,3.723
-0.292,0.339,-0.878,-11.719,5.737,-0.122
-0.298,0.333,-0.813,-10.986,7.507,-2.136
-0.344,0.327,-0.813,2.380,11.719,-4.333
-0.493,0.348,-0.865,6.836,10.498,-7.141
-0.553,0.345,-0.879,6.042,3.235,-10.925
-0.561,0.248,-0.905,-0.427,-1.648,-8.423
-0.536,0.197,-0.927,-23.743,-16.174,8.423
-0.581,0.246,-0.893,-30.029,-23.560,16.174
-0.723,0.313,-0.869,-15.930,-40.039,8.484
-1.313,0.322,-0.964,4.028,-57.800,-8.850
-1.659,0.227,-1.127,48.828,-142.578,-49.011
-2.105,0.032,-1.642,71.289,-205.139,-60.364
-2.099,0.029,-1.904,79.834,-274.231,-61.890
-1.903,0.179,-1.990,43.884,-422.424,-46.265
-1.823,0.214,-1.823,24.658,-493.286,-33.203
-1.750,0.172,-1.619,11.780,-616.333,-3.357
-1.751,-0.051,-1.347,-2.930,-673.401,16.846
-1.808,-0.090,-1.303,-46.692,-786.926,75.500
-2.034,-0.112,-1.295,-56.152,-844.177,109.985
-2.178,-0.099,-1.264,-25.024,-948.975,185.974
-2.619,0.201,-1.075,-5.859,-993.408,220.398
-3.001,0.441,-0.855,73.181,-1080.078,239.563
-3.963,0.581,0.428,144.287,-1114.136,202.270
-4.000,0.475,1.412,235.474,-1085.510,83.618
-3.477,0.293,3.021,211.609,-991.028,36.438
-2.855,0.159,3.106,-1.282,-683.105,-3.174
-2.195,0.159,1.972,-142.822,-557.068,25.940
-2.130,0.502,1.702,-235.596,-503.845,76.538
-1.880,1.666,2.935,-205.994,-510.376,125.916
-1.558,2.101,3.551,-153.564,-452.698,118.286
-1.185,2.163,3.478,-26.245,-200.867,65.674
-0.587,1.506,2.222,48.645,-106.567,37.964
-0.407,1.068,1.850,112.305,-53.528,0.061
-0.200,0.682,1.538,72.998,-44.250,0.854
-0.169,0.708,1.336,-2.625,-5.676,19.470
-0.107,0.787,0.917,-2.747,11.108,24.048
-0.106,0.797,0.806,22.339,17.029,28.015
-0.160,0.864,0.810,28.687,12.512,26.794
-0.198,0.864,0.828,36.499,9.460,21.484
-0.213,0.746,0.803,45.776,5.859,4.211
-0.189,0.679,0.849,39.246,2.258,-2.075
-0.162,0.625,0.918,13.550,3.235,-6.714
-0.148,0.573,0.897,1.038,10.864,-6.775
-0.151,0.598,0.819,-7.202,25.085,-2.075
-0.137,0.645,0.757,-0.305,27.588,-0.854
-0.133,0.626,0.749,10.986,28.687,-3.235
-0.125,0.567,0.729,12.939,28.564,-3.723
-0.113,0.553,0.729,1.770,28.320,-1.526
-0.101,0.532,0.704,-6.226,29.114,0.366
-0.107,0.526,0.691,-12.146,30.151,6.714
-0.097,0.563,0.680,-13.245,29.724,9.827
-0.100,0.589,0.659,-12.939,27.832,11.841
-0.109,0.618,0.663,-7.935,18.799,12.512
-0.110,0.625,0.717,-6.653,16.235,9.216
-0.110,0.599,0.707,-4.639,17.395,3.601
-0.115,0.561,0.708,-1.282,16.663,5.981
-0.112,0.568,0.745,0.183,16.479,11.169
-0.105,0.588,0.782,-4.578,20.081,10.925
-0.104,0.591,0.768,-21.973,29.297,9.460
-0.092,0.612,0.732,-30.945,31.982,10.315
-0.087,0.631,0.724,-37.170,33.386,11.230
-0.085,0.667,0.705,-39.368,33.752,10.498
-0.080,0.671,0.696,-34.119,32.959,10.559
-0.076,0.666,0.698,-23.926,29.907,8.911
-0.084,0.650,0.704,-29.358,29.236,7.874
-0.076,0.656,0.697,-52.246,29.236,8.972
-0.059,0.704,0.697,-62.073,28.748,9.705
-0.064,0.729,0.696,-69.214,25.391,8.484
-0.074,0.755,0.657,-62.988,23.010,8.240
-0.068,0.759,0.615,-33.325,14.648,9.399
-0.038,0.759,0.596,-15.015,8.728,7.935
-0.043,0.750,0.631,-4.578,3.479,4.517
-0.048,0.740,0.666,-11.841,-0.916,-0.427
-0.050,0.711,0.700,-14.893,-0.366,-0.977
-0.048,0.708,0.702,-13.794,2.747,1.648
-0.041,0.738,0.670,-11.292,4.089,2.991

-0.258,1.074,1.469,42.847,111.755,-50.903
-0.277,1.040,1.486,67.871,165.588,-71.289
-0.252,0.911,1.424,81.116,192.383,-79.590
-0.191,0.834,1.390,93.323,239.441,-88.135
-0.102,0.753,1.315,81.848,258.362,-84.412
-0.073,0.767,1.252,56.152,284.241,-74.402
0.037,0.854,1.072,55.115,289.001,-74.402
0.130,0.872,0.974,59.448,288.269,-79.773
0.177,0.856,0.947,49.988,271.484,-96.619
0.100,0.815,1.287,41.321,265.381,-104.553
0.034,0.779,1.566,51.331,299.683,-123.840
-0.066,0.560,1.943,67.993,344.116,-133.789
-0.135,0.383,1.917,69.580,454.895,-131.531
-0.251,0.087,1.506,56.396,502.869,-113.098
-0.300,0.022,1.287,23.437,568.420,-63.110
-0.473,-0.063,0.870,7.874,595.764,-39.856
-0.542,-0.116,0.643,-1.099,620.972,-17.578
-0.596,-0.133,0.429,-26.184,651.245,23.193
-0.724,-0.012,0.162,-49.500,655.701,34.241
-0.823,0.050,0.083,-57.312,662.842,32.654
-0.924,0.133,-0.168,-26.611,668.274,33.752
-0.952,0.155,-0.276,25.452,656.677,51.819
-0.977,0.232,-0.384,31.128,645.935,55.969
-1.014,0.283,-0.465,24.048,619.507,49.744
-1.221,0.280,-0.625,27.832,600.647,47.791
-1.392,0.210,-0.718,33.508,577.637,46.082
-1.817,0.119,-1.049,31.982,515.564,55.847
-1.962,0.204,-1.241,28.564,473.083,71.228
-2.067,0.353,-1.438,-0.244,368.408,70.251
-2.429,0.617,-2.155,-18.738,300.171,41.321
-2.470,0.672,-2.927,23.071,39.673,-19.958
-1.432,0.425,-2.139,29.358,-82.764,-37.842
-0.971,0.296,-1.090,-58.167,-72.876,-20.264
0.192,0.106,0.027,-45.471,-40.344,14.893
0.695,0.070,0.190,-5.920,19.958,39.978
0.332,0.306,-0.031,-2.808,52.673,22.766
-0.265,0.502,-0.790,42.297,62.744,-6.348
-1.006,0.766,-2.104,69.092,-4.333,-23.743
-0.971,0.666,-1.631,70.496,-65.186,-36.560
-0.845,0.490,-0.915,13.550,-32.166,-13.000
-0.371,0.356,-0.476,-10.132,6.409,8.667
-0.124,0.429,-0.705,-41.992,27.649,25.391
-0.049,0.501,-0.911,-48.462,18.372,18.555
-0.190,0.443,-0.852,-31.433,7.690,0.854
-0.459,0.304,-0.864,-15.198,7.690,-3.174
-0.501,0.298,-0.911,2.075,5.066,-2.014
-0.451,0.410,-0.872,-2.441,5.371,0.549
-0.423,0.468,-0.814,-21.851,8.606,3.540
-0.381,0.438,-0.794,-25.574,7.935,0.305
-0.377,0.366,-0.825,-22.888,6.104,-5.554
-0.403,0.292,-0.843,-2.563,-2.014,-11.963
-0.433,0.318,-0.838,1.831,-4.517,-10.315
-0.479,0.351,-0.839,-2.686,-3.723,-10.193
-0.626,0.352,-0.889,-3.845,-7.019,-12.085
-0.775,0.347,-0.930,0.183,-27.710,-30.396
-1.207,0.321,-1.094,11.230,-43.640,-43.213
-1.441,0.302,-1.258,31.311,-101.074,-68.420
-2.011,0.323,-1.650,32.776,-151.855,-84.595
-2.317,0.389,-1.829,30.518,-297.424,-129.211
-2.954,0.499,-2.085,28.992,-393.127,-148.254
-3.192,0.468,-2.170,14.160,-622.742,-169.617
-3.384,0.233,-2.325,-16.907,-749.573,-170.898
-3.409,0.166,-2.325,-140.625,-983.520,-118.713
-3.548,0.315,-1.982,-218.018,-1069.580,-59.692
-3.745,0.507,-1.666,-327.270,-1177.673,83.618
-4.000,1.177,-0.819,-328.369,-1221.558,140.320
-4.000,1.222,-0.046,-279.114,-1275.024,175.720
-3.994,0.648,3.058,-73.669,-1433.227,193.665
-3.994,0.856,4.000,54.687,-1454.529,191.589
-3.751,1.369,4.000,64.209,-940.857,106.262
-1.973,1.151,3.885,-43.884,-535.950,11.414
-1.369,0.352,3.229,-155.518,-80.444,-20.203
-0.803,0.244,1.983,-119.324,-98.450,60.669
-0.542,0.788,2.449,16.663,-207.153,152.649
-0.107,1.085,2.964,46.997,-155.884,117.920
0.051,0.869,2.301,-6.226,25.208,32.288
0.194,0.498,0.934,2.441,51.514,22.156
0.248,0.413,0.782,35.339,31.372,30.640
0.277,0.367,0.807,45.166,-22.766,55.420
0.238,0.545,0.728,4.639,-32.593,60.669
0.219,0.731,0.696,-28.564,-46.570,51.575
0.061,0.794,0.944,-6.592,-54.138,42.908
-0.039,0.752,1.149,15.808,-54.687,26.611
-0.104,0.777,1.391,9.094,-41.199,20.874
-0.089,0.773,1.376,5.798,-7.263,15.076
-0.003,0.667,1.144,8.301,6.287,15.137
0.035,0.608,1.001,3.662,14.221,16.357
0.056,0.581,0.912,-10.193,13.000,19.409
0.064,0.587,0.904,-11.047,10.376,20.325
0.054,0.579,0.900,-6.592,11.047,18.616
0.033,0.565,0.886,-5.676,12.573,16.785
0.020,0.576,0.896,-9.033,15.442,12.085
-0.006,0.572,0.907,-10.437,16.846,8.972
-0.017,0.530,0.903,-11.536,19.531,3.845
-0.012,0.452,0.850,-14.038,21.118,4.700
-0.005,0.448,0.813,-16.357,22.522,7.446
-0.006,0.464,0.781,-16.174,22.705,14.038
0.008,0.529,0.727,-12.939,21.118,16.785
0.021,0.552,0.715,1.587,13.672,15.686
0.029,0.548,0.725,4.822,9.155,12.329
0.030,0.537,0.727,1.709,2.258,6.897
0.028,0.493,0.733,0.488,-0.366,5.554
0.024,0.473,0.739,-8.240,-5.371,5.554
-0.002,0.491,0.779,-13.489,-7.446,7.690
0.001,0.515,0.804,-14.954,-7.874,9.583
0.004,0.533,0.808,-6.470,-5.676,8.545
-0.014,0.546,0.814,0.000,-6.042,7.324
-0.020,0.545,0.827,1.587,-8.057,6.042
-0.019,0.534,0.841,-0.427,-8.545,4.822
-0.020,0.520,0.850,-0.854,-7.507,3.723
-0.009,0.506,0.860,-3.601,-6.104,4.822
-0.003,0.518,0.860,-7.996,-3.235,6.775
-0.010,0.552,0.870,-8.667,-1.831,7.385
-0.015,0.573,0.864,-10.681,-0.305,7.202
-0.017,0.589,0.854,-8.362,2.075,4.150
-0.014,0.576,0.842,-4.761,2.563,2.747
-0.005,0.556,0.835,-0.183,2.380,1.160
0.006,0.531,0.823,0.916,2.136,1.404
0.004,0.539,0.829,-2.686,2.563,3.418

-0.267,1.002,1.794,-14.038,90.271,-33.325
-0.405,1.061,2.009,-0.488,170.471,-69.153
-0.684,1.028,2.481,29.724,226.990,-84.534
-0.781,0.966,2.612,100.952,377.197,-103.638
-0.816,0.698,2.332,137.817,455.200,-105.103
-0.791,0.559,2.064,151.855,565.491,-79.834
-0.747,0.515,1.784,119.263,602.295,-63.171
-0.741,0.555,1.765,79.224,636.292,-53.589
-0.731,0.610,1.816,19.592,705.810,-59.753
-0.738,0.544,1.638,18.127,746.155,-70.190
-0.681,0.363,1.254,64.392,795.471,-60.364
-0.523,0.029,0.435,76.294,795.776,-33.936
-0.522,0.013,0.242,54.199,788.086,27.039
-0.720,0.140,0.036,55.298,793.091,41.748
-0.904,0.128,-0.203,93.750,786.987,72.327
-1.214,0.093,-0.839,102.966,769.409,94.421
-1.227,0.198,-1.137,101.990,737.915,119.629
-1.225,0.340,-1.346,77.393,627.319,169.189
-1.271,0.492,-1.332,47.729,559.326,175.354
-1.332,0.495,-1.118,-38.391,436.096,151.917
-1.641,0.382,-0.620,-56.580,389.465,131.775
-1.841,0.353,-0.575,-60.303,323.791,91.675
-2.266,0.366,-0.986,-47.363,290.222,71.289
-2.360,0.390,-1.462,-6.348,176.331,28.564
-1.815,0.409,-2.002,5.798,84.656,13.367
-1.229,0.333,-1.599,-6.897,11.292,10.437
0.099,0.178,-0.573,-22.156,-13.367,30.457
0.562,0.094,-0.204,-8.362,-2.625,32.593
0.678,0.035,0.036,8.911,29.724,9.644
0.193,0.149,-0.203,14.038,63.660,12.634
-0.262,0.428,-0.778,52.124,87.036,12.878
-1.011,0.952,-1.523,90.393,37.476,-10.254
-0.973,0.860,-1.141,57.617,-51.453,-22.583
-0.686,0.391,-0.424,17.578,-42.236,-6.531
-0.511,0.332,-0.554,-7.385,-6.653,15.320
-0.180,0.462,-0.960,-7.202,-9.155,13.855
-0.120,0.451,-0.916,-6.042,-16.907,9.766
-0.218,0.361,-0.719,4.211,-10.742,4.944
-0.332,0.388,-0.750,12.634,-1.099,1.526
-0.434,0.451,-0.844,23.621,7.507,-7.812
-0.478,0.526,-0.900,19.592,7.446,-10.498
-0.439,0.514,-0.848,3.479,5.310,-7.263
-0.369,0.493,-0.786,-1.404,3.601,-3.235
-0.342,0.505,-0.798,-7.690,0.977,1.953
-0.292,0.525,-0.790,-11.658,1.526,2.625
-0.315,0.495,-0.778,-8.911,3.845,0.366
-0.396,0.439,-0.781,-4.700,4.761,-2.441
-0.413,0.432,-0.807,-9.460,2.075,-5.981
-0.473,0.384,-0.885,-17.761,-3.845,-4.272
-0.515,0.362,-0.890,-27.405,-11.475,-1.892
-0.626,0.330,-0.839,-35.767,-26.733,4.761
-0.703,0.332,-0.815,-27.771,-32.654,8.484
-0.828,0.359,-0.813,10.010,-42.969,-4.211
-1.064,0.406,-0.873,38.147,-52.551,-25.024
-1.194,0.399,-0.954,58.472,-92.285,-65.857
-1.367,0.379,-1.228,57.129,-124.817,-72.510
-1.362,0.399,-1.370,48.523,-209.900,-71.716
-1.353,0.510,-1.421,40.649,-262.085,-79.102
-1.469,0.517,-1.306,44.434,-376.404,-104.980
-1.777,0.370,-1.149,50.476,-426.880,-115.967
-1.847,0.262,-1.224,26.367,-528.442,-128.662
-1.704,0.183,-1.551,-4.272,-596.008,-124.207
-1.603,0.250,-1.706,-89.905,-756.103,-91.064
-1.627,0.538,-1.788,-118.347,-834.473,-69.214
-1.892,0.651,-1.619,-98.389,-955.933,-14.038
-2.602,0.685,-1.054,-44.861,-981.445,21.362
-2.922,0.735,-0.722,8.911,-991.333,47.302
-3.348,0.806,-0.214,105.774,-1135.376,-8.728
-4.000,0.315,1.971,188.416,-1289.612,-128.418
-4.000,-0.016,3.362,47.180,-1221.313,-222.656
-3.264,0.022,4.000,-92.041,-971.497,-162.537
-2.454,0.011,3.974,-138.611,-446.716,-43.762
-1.304,-0.242,2.562,-74.585,-307.312,9.155
-1.003,-0.060,2.214,-15.076,-282.837,93.689
-0.615,0.929,2.916,-44.617,-279.541,103.821
-0.424,1.280,3.002,-52.612,-137.634,50.842
-0.197,0.779,2.017,4.761,-65.125,13.428
-0.107,0.260,1.563,104.248,-14.893,0.244
0.086,-0.039,1.223,73.914,-6.836,23.010
0.089,0.155,1.030,16.174,5.676,46.875
0.056,0.413,0.817,-39.307,11.597,59.082
-0.020,0.773,0.764,-30.151,-2.747,50.049
-0.080,0.825,0.910,6.836,-31.555,19.714
-0.167,0.597,1.242,16.174,-33.813,4.150
-0.161,0.455,1.292,6.653,-12.939,-2.258
-0.098,0.382,1.141,-5.310,0.000,6.042
-0.069,0.460,1.052,-23.682,12.512,23.987
-0.059,0.622,0.952,-22.461,13.916,25.635
-0.054,0.637,0.947,-12.573,14.038,22.583
-0.036,0.545,0.956,5.798,15.259,10.376
-0.030,0.500,0.934,3.418,16.418,6.104
-0.031,0.470,0.930,-5.249,16.418,4.089
-0.053,0.441,0.929,-11.292,16.663,4.883
-0.060,0.433,0.916,-12.451,17.151,8.057
-0.070,0.420,0.923,-8.301,18.616,8.972
-0.075,0.425,0.910,-15.503,24.353,8.484
-0.070,0.450,0.835,-18.738,24.780,8.179
-0.061,0.451,0.816,-5.432,19.470,5.920
-0.064,0.410,0.823,-3.723,17.212,3.357
-0.065,0.388,0.797,-7.568,16.235,1.892
-0.055,0.380,0.781,-1.648,12.451,5.859
-0.037,0.387,0.817,3.601,10.986,8.545
-0.029,0.400,0.810,-4.761,11.902,9.705
-0.020,0.451,0.782,-10.193,11.047,8.972
-0.023,0.473,0.794,-14.709,5.798,7.019
-0.037,0.470,0.812,-17.456,3.540,5.371
-0.046,0.465,0.825,-16.113,-0.366,3.479
-0.052,0.459,0.879,-12.268,-0.793,2.747
-0.051,0.436,0.878,-9.521,0.366,1.892
-0.044,0.390,0.855,-13.428,2.808,2.930
-0.045,0.381,0.841,-19.592,3.540,5.005
-0.045,0.393,0.827,-32.471,5.859,11.108
-0.036,0.466,0.798,-35.095,6.958,13.428
-0.040,0.509,0.780,-33.508,6.409,14.099
-0.046,0.586,0.763,-30.334,4.150,13.428
-0.046,0.600,0.781,-24.231,-2.136,8.179
-0.055,0.557,0.824,-24.841,-5.066,5.310
-0.054,0.528,0.848,-22.583,-6.958,3.662
-0.051,0.506,0.852,-18.127,-5.859,4.028

-0.198,0.677,1.815,-0.061,134.460,-16.907
-0.273,0.641,1.860,-21.423,214.600,-20.386
-0.408,0.651,1.856,-10.620,255.066,-10.803
-0.422,0.699,1.840,50.110,330.139,-0.061
-0.351,0.834,1.706,66.223,359.558,-4.578
-0.310,0.858,1.786,26.550,403.748,-16.052
-0.420,0.851,2.097,-7.568,435.181,-26.917
-0.477,0.868,2.113,-31.799,476.013,-44.922
-0.541,0.842,2.041,-49.561,566.833,-94.482
-0.706,0.555,1.686,-44.189,612.000,-114.990
-0.744,0.387,1.497,-19.348,687.073,-117.798
-0.695,0.179,1.116,-17.151,713.806,-106.262
-0.690,0.105,0.834,-25.696,739.197,-75.623
-0.794,-0.032,0.332,-27.527,741.760,-55.786
-0.879,-0.069,0.126,-27.405,732.422,-20.020
-1.032,-0.061,-0.256,-19.043,720.154,-4.639
-1.095,-0.023,-0.352,33.875,697.449,19.531
-1.250,0.002,-0.524,67.078,689.514,27.405
-1.327,-0.020,-0.724,89.722,675.049,43.091
-1.413,0.020,-1.249,91.187,607.178,101.624
-1.408,0.115,-1.405,67.993,557.922,128.906
-1.394,0.233,-1.457,10.010,441.772,146.912
-1.487,0.470,-1.294,-8.545,382.263,135.376
-1.636,0.504,-1.182,-20.264,278.564,92.163
-2.040,0.463,-1.307,-25.513,230.164,65.979
-2.207,0.579,-1.777,19.043,83.374,1.892
-1.481,0.576,-1.667,44.556,-7.568,-17.090
-1.005,0.310,-1.124,-41.260,-32.715,9.827
-0.058,0.133,-0.415,-69.763,-14.160,31.677
0.321,0.205,-0.285,-59.937,-3.113,43.030
0.237,0.418,-0.417,-31.250,33.386,23.926
-0.163,0.559,-0.783,-14.954,50.293,2.686
-0.547,0.641,-1.172,25.330,13.916,-32.654
-0.752,0.475,-1.124,14.526,-15.381,-32.410
-0.668,0.374,-0.879,-37.231,-8.484,-4.456
-0.384,0.401,-0.773,-51.453,3.174,12.573
-0.223,0.485,-0.839,-47.424,6.836,21.179
-0.159,0.475,-0.840,-38.757,5.066,10.010
-0.215,0.370,-0.835,-20.203,8.057,-7.507
-0.328,0.302,-0.909,-15.076,10.376,-8.179
-0.363,0.340,-0.932,-11.902,8.850,-5.249
-0.366,0.419,-0.886,-12.817,8.423,-4.272
-0.372,0.429,-0.848,-12.207,9.766,-2.930
-0.419,0.402,-0.826,-9.155,10.437,-4.517
-0.427,0.371,-0.855,-5.798,10.742,-7.874
-0.407,0.327,-0.892,2.930,7.385,-11.475
-0.333,0.294,-0.907,4.456,4.456,-9.766
-0.307,0.331,-0.869,-3.601,1.282,-4.211
-0.323,0.420,-0.806,-6.897,0.854,-4.211
-0.364,0.424,-0.804,-5.432,-0.977,-11.353
-0.449,0.323,-0.861,-6.226,-3.357,-13.367
-0.455,0.263,-0.912,-10.498,-13.428,-7.080
-0.434,0.229,-0.945,-13.977,-20.935,0.183
-0.461,0.267,-0.897,-22.461,-30.579,17.822
-0.561,0.438,-0.810,-19.897,-30.640,20.386
-0.674,0.508,-0.831,7.935,-41.870,-12.817
-1.000,0.497,-1.058,17.700,-59.631,-34.180
-1.188,0.446,-1.210,20.203,-80.811,-52.002
-1.401,0.376,-1.526,43.396,-141.663,-76.477
-1.418,0.423,-1.616,52.063,-190.796,-76.660
-1.412,0.512,-1.622,38.940,-289.368,-71.045
-1.493,0.644,-1.458,27.222,-330.933,-76.782
-1.605,0.621,-1.404,19.165,-415.649,-106.140
-1.800,0.383,-1.533,12.512,-465.515,-116.638
-1.870,0.248,-1.703,-49.988,-591.187,-110.352
-2.003,0.016,-1.928,-89.294,-674.072,-81.726
-2.113,-0.003,-1.863,-152.161,-848.511,4.883
-2.403,0.193,-1.459,-178.345,-915.405,43.213
-2.648,0.247,-1.190,-187.500,-1019.165,128.052
-3.475,0.304,-0.707,-169.800,-1070.862,170.105
-3.928,0.442,-0.178,-113.464,-1214.478,230.408
-4.000,0.807,1.880,-67.810,-1318.725,220.581
-4.000,1.019,3.085,-44.373,-1350.586,187.988
-3.941,1.223,3.947,-141.602,-998.596,141.968
-2.987,1.270,3.933,-174.622,-718.140,116.333
-2.253,0.936,3.179,-78.613,-338.745,92.102
-1.252,0.875,2.375,-33.081,-309.448,115.356
-0.990,1.458,2.973,6.042,-301.575,131.897
-0.479,1.733,3.461,48.950,-214.416,83.435
-0.270,1.078,2.801,95.337,-15.137,-10.498
-0.016,0.241,1.424,64.209,26.123,-6.836
-0.036,0.368,1.145,-15.869,27.771,42.053
-0.120,0.816,0.807,-19.714,28.748,53.162
-0.154,0.926,0.663,-9.399,31.250,50.598
-0.171,0.935,0.616,15.503,12.817,18.982
-0.202,0.763,0.909,19.836,-2.258,3.967
-0.231,0.699,1.097,7.446,-6.775,-5.798
-0.216,0.673,1.189,-0.183,5.493,-3.662
-0.190,0.679,1.108,-7.446,33.325,2.563
-0.137,0.712,0.977,-14.404,41.260,5.371
-0.107,0.718,0.952,-22.522,49.805,7.263
-0.071,0.697,0.880,-20.020,53.650,7.202
-0.068,0.692,0.821,-17.334,56.091,7.568
-0.060,0.696,0.781,-18.860,51.575,6.836
-0.051,0.705,0.751,-22.217,44.922,4.822
-0.052,0.696,0.783,-14.160,32.349,-3.479
-0.074,0.607,0.860,-10.010,31.494,-8.972
-0.084,0.556,0.849,-16.357,37.598,-12.085
-0.084,0.527,0.823,-19.714,41.077,-9.827
-0.079,0.529,0.809,-22.278,49.805,-7.080
-0.069,0.502,0.678,-21.179,53.833,-5.676
-0.061,0.500,0.599,-14.648,45.776,8.606
-0.028,0.567,0.610,-10.254,36.438,14.038
-0.017,0.579,0.636,-8.057,29.602,13.123
-0.014,0.570,0.638,-10.193,26.184,2.991
-0.004,0.563,0.618,-11.902,25.024,1.282
0.006,0.578,0.625,-6.409,18.066,3.174
0.005,0.587,0.664,-3.662,14.771,1.953
-0.005,0.579,0.675,-15.015,10.986,-0.977
-0.013,0.586,0.691,-24.109,8.728,0.610
-0.009,0.607,0.700,-27.527,4.456,2.869
-0.026,0.611,0.724,-20.325,2.380,2.930
-0.031,0.613,0.746,-15.686,0.916,3.845
-0.029,0.622,0.759,-14.771,3.174,2.747
-0.030,0.624,0.764,-12.451,5.066,1.404
-0.028,0.624,0.767,-9.094,7.751,3.296
-0.003,0.624,0.741,-9.033,9.644,4.150
0.009,0.628,0.712,-12.207,9.949,4.883
0.014,0.658,0.690,-13.428,7.507,5.249

-0.118,1.024,1.562,33.020,116.638,-57.617
-0.168,1.033,1.665,49.438,173.584,-74.524
-0.323,1.085,2.011,53.345,210.693,-81.055
-0.394,1.075,2.165,69.641,312.317,-97.534
-0.513,0.911,2.176,81.482,370.666,-101.990
-0.495,0.817,2.069,87.524,425.293,-101.196
-0.414,0.676,1.767,69.397,506.103,-92.896
-0.392,0.627,1.628,43.762,533.081,-89.844
-0.378,0.632,1.566,-53.284,577.759,-92.834
-0.583,0.812,1.680,-90.881,602.783,-103.455
-0.672,0.864,1.634,-31.494,673.340,-136.780
-0.645,0.610,1.075,35.522,705.322,-143.799
-0.591,0.358,0.704,76.355,735.840,-125.732
-0.637,-0.100,0.012,48.706,734.619,-106.934
-0.683,-0.184,-0.249,8.972,705.933,-53.223
-0.785,-0.099,-0.448,4.211,685.181,-23.804
-0.846,-0.022,-0.398,6.897,669.617,-0.916
-0.973,0.058,-0.375,31.921,656.311,23.865
-1.083,0.043,-0.520,37.659,647.705,30.334
-1.174,0.042,-0.729,33.752,596.985,43.335
-1.211,0.090,-1.020,30.884,553.955,56.519
-1.206,0.136,-1.014,-10.254,456.909,77.820
-1.350,0.197,-0.859,-30.640,412.598,78.979
-1.469,0.187,-0.787,-33.264,336.792,72.144
-1.752,0.260,-0.788,-35.828,304.382,64.026
-2.099,0.363,-1.213,-21.484,210.083,30.762
-2.159,0.497,-2.521,27.466,81.970,12.207
-1.658,0.406,-1.926,44.128,-42.908,-4.700
-0.779,0.092,-0.365,-71.655,-30.518,1.648
-0.254,0.031,-0.176,-76.843,14.404,19.470
0.205,0.053,-0.284,-9.399,34.729,25.269
0.254,0.253,-0.684,6.897,34.912,11.780
-0.076,0.370,-0.908,43.884,18.250,-13.977
-0.707,0.501,-1.132,60.059,-4.883,-20.325
-0.842,0.477,-0.992,46.448,-32.349,-18.555
-0.696,0.364,-0.749,26.794,-25.146,-12.146
-0.504,0.348,-0.767,-1.404,-8.179,4.822
-0.190,0.401,-0.868,-14.343,-3.357,11.047
-0.147,0.412,-0.862,-19.470,1.038,10.803
-0.323,0.336,-0.848,-8.484,-0.183,7.019
-0.421,0.324,-0.896,1.648,-1.587,2.502
-0.479,0.349,-0.932,-0.610,-1.038,-8.118
-0.484,0.338,-0.897,-7.751,1.526,-12.329
-0.437,0.327,-0.857,-11.047,9.949,-9.094
-0.362,0.350,-0.819,-6.409,11.536,-4.211
-0.359,0.373,-0.825,1.587,8.667,-1.953
-0.434,0.401,-0.852,3.601,6.653,-5.188
-0.475,0.384,-0.867,-0.366,5.737,-15.259
-0.500,0.317,-0.868,-5.066,5.554,-18.677
-0.505,0.295,-0.849,-8.484,0.122,-16.052
-0.539,0.311,-0.833,-9.399,-4.578,-12.573
-0.604,0.326,-0.845,-6.775,-17.212,-9.521
-0.948,0.341,-0.939,-3.052,-28.442,-14.893
-1.224,0.307,-1.064,3.174,-44.983,-26.123
-1.704,0.296,-1.484,25.696,-115.906,-59.692
-1.869,0.353,-1.694,35.706,-175.598,-78.430
-1.939,0.426,-1.869,20.447,-321.472,-91.431
-1.879,0.510,-1.924,7.385,-398.071,-95.093
-1.813,0.529,-1.830,-23.254,-558.044,-110.718
-1.823,0.468,-1.628,-47.791,-636.047,-121.460
-1.957,0.374,-1.559,-98.816,-758.850,-119.324
-2.148,0.176,-1.469,-120.300,-797.852,-96.130
-2.190,0.156,-1.397,-168.274,-852.356,-7.446
-2.215,0.386,-1.169,-192.200,-881.714,45.288
-2.336,0.580,-1.005,-197.571,-944.641,101.685
-2.968,0.745,-0.366,-158.264,-974.426,101.074
-3.359,0.636,0.181,-45.532,-1037.537,79.773
-3.775,0.365,1.663,-18.799,-1051.270,68.909
-3.611,0.343,2.415,-19.653,-1034.790,66.284
-2.686,0.548,3.403,-97.046,-832.153,83.801
-2.247,0.650,3.225,-165.161,-662.414,90.698
-1.914,0.728,2.607,-292.297,-398.926,106.995
-1.609,1.073,1.620,-297.791,-360.779,126.343
-1.493,1.348,1.775,-123.169,-380.249,160.706
-1.031,1.748,2.818,-11.230,-369.080,141.541
-0.779,1.581,3.134,117.676,-245.789,41.626
-0.378,0.723,2.863,111.084,-162.292,4.700
-0.236,0.428,2.434,25.391,-25.879,3.479
-0.076,0.476,1.526,-11.047,14.709,21.606
-0.057,0.627,1.153,-25.269,34.790,35.950
-0.074,0.830,0.866,-17.517,27.527,36.987
-0.103,0.806,0.907,-3.174,15.625,28.320
-0.131,0.734,0.983,20.386,4.150,15.076
-0.151,0.620,1.086,16.663,6.897,12.756
-0.158,0.588,1.088,-4.333,21.790,12.146
-0.150,0.561,0.999,-12.024,28.748,16.296
-0.137,0.613,0.974,-20.020,34.546,30.396
-0.101,0.724,0.971,-16.968,35.950,33.081
-0.090,0.723,0.952,-10.376,38.330,31.128
-0.072,0.696,0.914,-5.920,42.358,19.653
-0.046,0.640,0.817,-9.521,41.443,14.221
-0.052,0.625,0.795,-16.357,34.546,6.165
-0.062,0.599,0.802,-18.494,31.006,3.052
-0.068,0.589,0.809,-8.118,28.625,0.061
-0.073,0.523,0.829,3.784,29.846,-0.305
-0.063,0.472,0.815,12.024,33.936,1.587
-0.068,0.444,0.773,5.005,35.156,3.662
-0.071,0.466,0.762,-4.822,35.400,5.615
-0.076,0.488,0.743,-15.259,33.691,8.789
-0.061,0.523,0.688,-14.771,30.945,10.193
-0.045,0.527,0.662,-7.629,21.729,10.193
-0.017,0.512,0.620,-5.310,15.991,8.972
-0.013,0.515,0.625,-6.226,3.662,6.775
-0.022,0.536,0.696,-7.263,-0.916,5.554
-0.032,0.532,0.732,-5.005,-4.517,4.883
-0.057,0.535,0.782,-2.014,-4.822,5.615
-0.062,0.537,0.799,-2.319,-3.662,6.287
-0.057,0.550,0.804,-6.653,-2.991,6.653
-0.056,0.567,0.806,-8.850,-2.563,6.714
-0.058,0.575,0.813,-0.610,-1.587,5.188
-0.064,0.567,0.816,1.221,-1.160,4.395
-0.065,0.576,0.809,-3.662,-1.709,3.784
-0.068,0.585,0.811,-3.113,-1.526,2.502
-0.067,0.566,0.814,0.366,0.427,0.305
-0.057,0.538,0.833,2.380,2.014,0.671
-0.053,0.551,0.836,-0.488,5.127,4.333
-0.049,0.605,0.810,-2.197,5.981,5.981
-0.044,0.623,0.793,-1.831,5.920,5.859
-0.039,0.635,0.778,-1.282,2.380,1.160

-0.180,0.913,1.701,57.373,117.493,-56.274
-0.201,0.995,1.863,73.608,177.917,-72.510
-0.304,1.231,2.295,78.064,216.370,-84.412
-0.421,1.372,2.553,97.107,317.688,-124.023
-0.791,1.357,2.842,118.591,386.475,-153.442
-0.904,1.121,2.737,187.927,546.509,-192.810
-0.902,0.552,2.143,201.050,608.887,-189.148
-0.827,0.393,1.797,185.120,646.606,-172.913
-0.725,0.379,1.530,116.821,673.340,-135.132
-0.654,0.432,1.225,98.877,682.495,-128.845
-0.653,0.345,0.991,156.555,718.506,-105.652
-0.662,0.150,0.665,182.983,733.398,-83.679
-0.632,0.071,0.551,190.857,762.634,-40.588
-0.620,-0.104,0.259,189.697,774.475,-7.507
-0.734,-0.155,0.132,168.762,778.747,67.444
-1.027,-0.086,0.008,145.386,776.550,97.961
-1.161,0.002,-0.076,121.582,772.156,120.544
-1.361,0.060,-0.165,115.662,742.248,144.836
-1.703,0.112,-0.480,130.920,719.788,155.151
-1.750,0.196,-0.696,116.882,652.283,178.772
-1.813,0.389,-0.905,96.191,602.051,182.983
-1.904,0.424,-0.903,45.959,486.938,156.799
-2.249,0.349,-0.903,23.499,424.438,130.249
-2.584,0.341,-0.939,-12.756,290.588,80.261
-3.063,0.871,-2.018,7.385,181.519,43.213
-2.417,0.735,-1.612,38.269,49.805,-1.953
-1.673,0.295,-0.857,-25.269,7.263,-10.376
-0.209,-0.154,-0.313,-28.931,38.391,8.606
0.365,-0.087,-0.482,25.757,32.654,31.677
0.393,0.289,-0.441,27.588,27.893,25.146
-0.106,0.503,-0.463,33.569,42.053,-9.399
-1.053,0.745,-1.060,44.189,24.658,-33.203
-1.137,0.551,-1.020,7.446,-25.574,-35.095
-0.858,0.208,-0.580,-13.977,-22.278,-15.564
-0.631,0.301,-0.594,-29.297,-12.085,15.564
-0.304,0.472,-0.834,-44.373,-7.751,15.259
-0.286,0.401,-0.827,-53.101,-0.793,7.019
-0.469,0.175,-0.826,-17.639,4.883,-5.188
-0.594,0.187,-0.898,-0.427,2.136,-12.024
-0.664,0.271,-0.902,6.287,-5.920,-13.489
-0.673,0.403,-0.735,1.221,-4.822,-12.512
-0.616,0.411,-0.710,-8.911,2.441,-13.916
-0.492,0.371,-0.787,-7.568,4.517,-14.038
-0.474,0.368,-0.796,-5.798,6.653,-11.902
-0.505,0.363,-0.781,-5.981,6.714,-10.071
-0.547,0.355,-0.776,-2.441,2.686,-7.019
-0.608,0.351,-0.775,-3.967,0.244,-6.592
-0.594,0.353,-0.777,-11.902,-7.202,-5.920
-0.595,0.364,-0.745,-17.029,-11.475,-6.470
-0.613,0.357,-0.730,-20.996,-15.991,-10.193
-0.703,0.314,-0.754,-20.386,-18.433,-13.000
-0.814,0.324,-0.772,-21.484,-22.766,-16.663
-1.250,0.365,-0.860,-26.184,-41.565,-29.114
-1.550,0.379,-0.953,-23.376,-64.087,-40.649
-2.090,0.509,-1.291,-12.939,-148.071,-69.336
-2.275,0.579,-1.475,-11.353,-212.463,-80.200
-2.396,0.657,-1.574,-29.175,-380.188,-102.600
-2.570,0.878,-1.468,-48.523,-469.604,-116.577
-2.586,0.940,-1.411,-77.637,-643.738,-155.334
-2.647,0.754,-1.440,-96.802,-724.914,-176.636
-2.679,0.554,-1.450,-157.104,-860.168,-192.932
-2.578,0.329,-1.365,-202.759,-917.480,-176.819
-2.630,0.366,-1.254,-300.964,-1034.424,-90.820
-3.206,0.599,-0.783,-316.345,-1088.623,-44.739
-3.666,0.675,-0.380,-208.252,-1202.881,-52.917
-4.000,0.284,1.504,-122.070,-1284.668,-95.947
-4.000,0.011,2.942,-64.270,-1294.067,-102.356
-3.407,-0.178,4.000,-121.643,-1091.858,-59.509
-2.488,0.048,4.000,-295.410,-511.780,24.475
-1.421,0.446,2.298,-303.894,-322.388,49.622
-1.383,0.510,1.635,-225.342,-282.349,68.420
-1.329,0.590,2.053,-64.880,-431.946,87.036
-0.828,0.846,3.998,-35.156,-418.091,80.688
-0.467,0.822,4.000,-3.418,-152.832,29.480
-0.048,0.182,2.449,21.667,-30.640,7.202
0.097,-0.043,1.792,51.025,49.133,33.081
0.231,0.141,1.260,43.701,39.734,59.998
0.253,0.366,1.093,8.789,9.155,72.876
0.182,0.546,0.966,-9.277,-8.667,58.472
0.127,0.488,1.097,-19.043,-25.452,41.992
0.068,0.402,1.267,-7.385,-35.583,30.029
0.008,0.355,1.449,-0.366,-27.100,32.471
0.015,0.394,1.432,-0.549,-0.549,36.255
0.062,0.407,1.261,-1.587,9.277,35.217
0.075,0.362,1.179,-4.944,12.878,35.217
0.068,0.383,1.141,-6.836,10.132,37.048
0.057,0.415,1.171,10.254,10.559,31.128
0.034,0.353,1.176,19.958,15.686,25.085
0.025,0.298,1.149,23.499,22.217,20.813
0.026,0.246,1.124,15.625,34.180,18.250
0.048,0.199,1.048,12.756,38.086,19.836
0.057,0.214,1.005,12.451,39.124,24.109
0.046,0.229,0.928,14.709,37.720,23.804
0.035,0.216,0.902,24.780,36.987,20.996
0.040,0.154,0.837,27.649,37.598,20.142
0.053,0.124,0.795,27.466,37.109,20.752
0.067,0.127,0.766,16.296,25.574,27.039
0.059,0.214,0.825,14.709,17.456,29.358
0.057,0.241,0.866,28.259,11.536,28.137
0.077,0.204,0.845,31.006,11.292,24.841
0.087,0.172,0.816,15.625,1.465,19.165
0.080,0.188,0.882,8.179,-6.775,17.151
0.063,0.202,0.958,7.874,-11.902,14.709
0.050,0.202,1.000,20.142,-8.240,12.817
0.048,0.174,0.970,27.222,-5.371,13.062
0.053,0.153,0.956,29.053,-5.005,13.000
0.070,0.143,0.948,24.353,-5.249,12.939
0.076,0.158,0.931,19.287,-7.935,10.010
0.066,0.169,0.951,27.771,-11.292,6.775
0.050,0.146,0.986,44.739,-14.038,2.808
0.034,0.099,1.022,70.190,-11.230,-3.479
0.042,0.014,1.052,61.340,-4.822,-3.296
0.061,0.015,1.031,20.935,4.028,4.883
0.078,0.088,1.004,11.414,3.357,7.446
0.073,0.094,1.014,11.658,-0.549,5.615
0.068,0.080,1.013,11.780,-1.465,5.432
0.073,0.079,1.005,14.038,-2.380,5.859
0.084,0.025,1.024,27.588,-3.723,6.470
0.086,0.005,1.031,27.832,-2.380,7.874

0.043,0.241,2.857,15.625,468.262,21.301
0.091,0.137,2.584,130.676,575.012,20.691
0.150,-0.025,2.045,154.053,598.145,37.720
0.084,0.028,2.058,89.661,640.503,65.857
0.130,0.087,2.104,80.200,675.171,67.932
0.138,0.006,1.812,98.328,705.933,67.200
-0.140,-0.105,0.926,101.807,736.328,68.604
-0.280,-0.098,0.710,86.792,742.859,80.566
-0.398,-0.121,0.507,102.173,762.390,109.985
-0.424,-0.072,-0.352,107.605,758.911,121.948
-0.236,0.021,-0.671,68.665,690.552,145.142
0.207,0.034,-0.441,42.053,643.555,149.902
0.290,-0.083,-0.006,10.010,583.496,142.944
-0.033,-0.410,0.653,10.193,582.031,142.029
-0.324,-0.518,0.718,35.828,602.905,171.265
-0.709,-0.491,0.376,42.419,608.337,191.711
-0.904,-0.398,0.217,34.363,598.389,204.163
-1.222,-0.341,0.217,17.090,548.767,208.679
-1.864,-0.309,0.563,22.583,532.104,209.900
-2.177,-0.243,0.665,1.465,507.812,186.829
-3.357,0.296,-0.370,-5.310,481.628,156.616
-3.615,1.041,-1.900,182.739,209.595,-11.780
-2.926,-0.062,-1.064,114.502,9.460,-98.999
-2.725,-0.409,-0.118,-202.087,-49.500,-39.551
-0.141,-0.208,-0.648,-130.676,-4.028,24.414
1.148,-0.107,-0.948,52.002,-8.911,61.707
0.939,0.006,0.364,46.570,-7.996,46.875
-0.094,0.327,0.485,52.368,33.508,23.132
-1.135,0.807,-0.369,170.471,78.918,-57.617
-1.785,0.589,-1.553,136.414,13.367,-78.735
-1.613,0.047,-1.086,-47.180,-57.617,-15.442
-0.889,-0.016,-0.244,-80.994,-42.542,19.653
-0.545,0.271,-0.371,-70.007,7.263,29.053
-0.374,0.268,-0.635,-33.691,21.484,21.545
-0.512,-0.003,-0.744,26.062,29.724,-15.015
-0.820,-0.147,-1.010,44.250,20.020,-20.325
-0.900,0.079,-0.925,66.589,-18.921,-6.165
-0.911,0.460,-0.430,55.420,-22.888,-4.333
-0.874,0.428,-0.372,4.639,5.554,-10.925
-0.737,0.146,-0.664,-10.193,15.015,-10.437
-0.666,0.098,-0.741,-14.160,15.991,-5.127
-0.678,0.201,-0.633,2.747,8.118,7.019
-0.743,0.244,-0.596,14.343,6.287,5.676
-0.794,0.243,-0.609,19.836,4.028,-7.385
-0.801,0.176,-0.624,17.761,1.831,-9.766
-0.770,0.164,-0.590,9.766,1.404,-6.836
-0.739,0.221,-0.556,4.639,3.052,-6.165
-0.745,0.254,-0.573,-6.409,7.751,-7.812
-0.795,0.226,-0.613,-10.437,8.911,-8.850
-0.817,0.198,-0.633,-13.733,1.465,-13.062
-0.843,0.195,-0.632,-15.503,-6.042,-12.512
-0.860,0.211,-0.620,-35.583,-18.860,-13.062
-0.903,0.220,-0.600,-42.603,-25.879,-16.846
-0.962,0.226,-0.610,-44.800,-32.227,-20.569
-1.241,0.203,-0.655,-47.302,-45.105,-29.541
-1.443,0.180,-0.698,-43.762,-56.580,-37.048
-1.698,0.196,-0.771,-42.847,-106.201,-57.007
-2.272,0.360,-0.978,-37.964,-146.667,-71.228
-2.494,0.455,-1.064,-14.587,-264.099,-101.868
-2.795,0.604,-1.089,-11.841,-337.585,-119.080
-2.889,0.669,-1.072,-25.696,-483.276,-161.926
-2.939,0.661,-1.043,-28.015,-550.415,-193.298
-2.906,0.568,-1.074,-48.218,-687.622,-246.277
-2.873,0.338,-1.232,-82.214,-762.024,-250.366
-2.917,0.224,-1.357,-188.843,-936.218,-212.830
-3.147,0.204,-1.444,-242.920,-1027.405,-179.687
-3.412,0.384,-1.271,-332.214,-1186.035,-83.618
-4.000,0.803,-0.591,-339.539,-1253.845,-45.532
-4.000,0.844,0.151,-222.107,-1425.232,-67.932
-4.000,0.535,2.520,-119.202,-1526.062,-116.150
-3.990,0.304,3.620,-66.772,-1509.277,-144.775
-3.936,-0.229,4.000,-107.117,-1066.772,-133.423
-3.559,-0.444,4.000,-139.893,-792.847,-102.966
-2.802,-0.356,3.874,-184.509,-498.962,20.142
-1.221,0.927,3.972,-161.072,-449.890,70.313
-0.615,0.996,4.000,61.523,-212.341,27.771
-0.014,-0.431,3.161,111.084,-32.104,-4.761
0.056,-0.642,2.081,-21.973,135.132,40.771
0.059,0.044,0.706,-49.927,104.126,78.979
0.059,0.365,0.497,-8.728,-7.629,84.900
-0.047,0.441,0.647,0.366,-53.101,56.458
-0.114,0.250,0.943,-16.357,-93.872,4.517
-0.174,0.050,1.528,-33.081,-84.961,-3.113
-0.186,0.152,1.637,-40.344,-64.026,0.244
-0.166,0.329,1.625,-9.766,-19.775,11.719
-0.114,0.473,1.492,12.939,-7.019,5.432
-0.108,0.340,1.409,22.949,9.155,-14.526
-0.038,0.087,1.189,2.075,14.648,-14.221
0.002,0.116,1.129,-44.678,11.353,-2.563
-0.002,0.202,1.187,-46.204,7.874,-2.014
-0.030,0.193,1.209,-35.400,12.451,-8.789
-0.074,0.167,1.196,-32.532,17.151,-11.597
-0.073,0.133,1.172,-19.836,28.503,-14.465
-0.062,0.025,1.059,-14.038,33.630,-13.367
-0.051,-0.009,0.984,-14.648,36.499,-10.437
-0.040,0.002,0.923,-33.203,32.593,-1.404
-0.026,0.080,0.873,-37.415,27.466,3.052
-0.020,0.114,0.855,-26.855,18.066,8.545
-0.010,0.152,0.879,-19.348,15.076,7.568
-0.008,0.136,0.904,-11.292,13.184,1.404
-0.012,0.083,0.935,-11.353,12.512,-0.610
-0.009,0.079,0.953,-19.348,12.390,1.099
0.012,0.111,0.946,-22.888,13.672,3.540
0.027,0.156,0.941,-26.245,14.648,5.554
0.051,0.208,0.886,-21.973,12.756,5.310
0.045,0.213,0.886,-15.808,7.874,3.723
0.040,0.203,0.911,-9.583,1.038,-2.563
0.028,0.122,0.911,-7.507,1.831,-5.310
0.028,0.112,0.901,-4.944,0.671,1.038
0.037,0.176,0.933,-2.625,-1.648,4.517
0.039,0.196,0.964,1.892,-3.052,0.916
0.016,0.188,1.014,1.709,-1.953,-2.258
0.016,0.177,1.043,1.160,-0.305,-3.723
0.029,0.168,1.062,-1.160,7.080,-5.066
0.064,0.151,0.960,-4.456,10.437,-6.165
0.063,0.154,0.904,-10.925,1.160,-3.357
0.052,0.183,0.985,-10.132,-5.249,-1.221
0.050,0.170,1.018,-3.723,-3.967,-1.953
0.042,0.148,0.998,-3.235,-0.793,-2.136

-0.280,0.311,2.615,96.436,292.664,-20.325
-0.379,0.345,2.748,117.310,436.401,-8.118
-0.540,0.230,2.586,127.075,509.827,-3.296
-0.566,0.182,2.325,109.375,612.915,12.329
-0.505,0.305,2.050,90.637,639.709,15.564
-0.485,0.350,1.991,86.792,660.034,11.963
-0.542,0.243,1.712,127.075,705.322,7.629
-0.520,0.133,1.514,146.423,730.041,14.709
-0.451,0.035,1.263,131.042,771.362,42.542
-0.298,-0.108,0.677,122.131,778.809,59.265
-0.286,-0.107,0.468,107.300,761.780,98.145
-0.388,-0.026,0.178,87.219,749.695,112.061
-0.501,0.005,0.068,51.514,728.699,119.507
-0.760,0.022,-0.133,48.279,716.309,118.713
-0.947,0.004,-0.272,56.580,698.608,117.798
-1.219,0.004,-0.492,88.623,648.010,131.287
-1.262,0.051,-0.562,84.656,615.417,143.982
-1.285,0.095,-0.564,54.016,532.898,150.757
-1.396,0.101,-0.377,38.696,492.187,145.447
-1.477,0.115,-0.283,-7.263,428.711,125.366
-1.696,0.143,-0.259,-12.634,405.762,111.328
-1.831,0.097,-0.323,15.259,365.234,87.708
-2.116,-0.005,-0.648,25.208,337.585,81.787
-2.210,0.024,-0.870,18.250,251.343,73.547
-2.150,0.184,-1.232,18.860,199.646,67.322
-1.990,0.314,-1.414,31.128,146.179,56.519
-1.715,0.405,-1.450,45.776,39.978,6.348
-1.005,0.008,-0.739,14.343,4.700,-9.338
-0.669,-0.208,-0.356,-8.911,-9.827,8.850
-0.332,0.031,-0.265,9.583,4.150,21.179
-0.400,0.352,-0.508,64.209,23.132,1.953
-0.761,0.569,-0.844,82.336,13.855,-20.386
-0.927,0.408,-0.753,45.166,-9.094,-36.377
-1.023,0.168,-0.664,-5.066,-5.432,-28.687
-0.936,0.182,-0.723,-29.907,-4.211,1.892
-0.682,0.218,-0.712,-24.292,-11.597,10.132
-0.605,0.236,-0.684,-26.062,-13.916,7.263
-0.607,0.228,-0.686,-19.226,-7.874,-6.958
-0.684,0.205,-0.726,-13.245,-2.991,-13.000
-0.762,0.180,-0.762,-5.554,1.770,-16.479
-0.792,0.185,-0.755,-5.493,2.014,-13.672
-0.766,0.212,-0.716,-2.136,-0.183,-6.470
-0.684,0.280,-0.639,0.366,-1.038,-4.395
-0.665,0.305,-0.629,2.197,1.770,-5.432
-0.683,0.286,-0.668,0.366,4.150,-5.920
-0.686,0.263,-0.695,-1.038,3.418,-7.263
-0.701,0.219,-0.683,-0.854,0.488,-7.751
-0.717,0.207,-0.667,2.625,-3.052,-7.141
-0.713,0.225,-0.687,2.563,-3.967,-6.592
-0.683,0.244,-0.698,-9.521,-6.897,-9.766
-0.637,0.224,-0.666,-12.817,-8.606,-10.498
-0.639,0.218,-0.649,-14.771,-6.409,-9.949
-0.703,0.240,-0.659,-13.367,-4.578,-10.742
-0.745,0.241,-0.687,-10.498,-5.005,-13.977
-0.801,0.214,-0.744,-9.888,-13.062,-22.156
-0.821,0.203,-0.756,-13.000,-19.287,-22.339
-0.848,0.200,-0.754,-24.048,-32.898,-14.893
-0.974,0.193,-0.738,-28.992,-39.368,-12.329
-1.080,0.192,-0.740,-27.100,-57.617,-13.794
-1.399,0.237,-0.787,-20.569,-73.486,-18.311
-1.562,0.310,-0.845,-5.737,-122.742,-38.818
-1.861,0.450,-0.973,-1.770,-157.898,-53.467
-1.961,0.514,-1.048,3.723,-250.061,-83.374
-2.203,0.620,-1.224,5.188,-304.932,-98.755
-2.322,0.656,-1.319,-1.099,-427.246,-134.094
-2.581,0.634,-1.422,-13.306,-491.821,-157.410
-2.701,0.595,-1.434,-59.692,-635.925,-202.576
-2.941,0.383,-1.509,-87.891,-719.665,-215.942
-2.965,0.251,-1.577,-145.081,-899.597,-182.861
-2.827,0.301,-1.543,-180.786,-982.422,-146.362
-2.983,0.478,-1.336,-271.912,-1113.708,-73.425
-3.822,0.755,-0.652,-306.091,-1164.368,-42.480
-4.000,0.854,-0.062,-316.895,-1208.862,-24.719
-4.000,0.808,1.969,-199.158,-1397.583,-51.697
-3.994,0.732,3.123,-111.816,-1458.374,-90.942
-3.987,0.479,3.946,-103.455,-1180.847,-119.812
-3.629,-0.016,4.000,-149.780,-924.255,-100.220
-2.875,0.014,4.000,-250.793,-497.864,-6.287
-1.286,0.656,3.978,-244.202,-386.597,39.246
-0.760,0.933,3.995,-56.946,-220.154,62.927
-0.136,0.304,3.592,41.992,-110.535,39.429
-0.016,-0.158,2.801,10.315,86.487,27.100
0.065,0.006,1.205,-56.274,116.028,51.514
0.083,0.267,0.786,-62.683,59.021,82.886
0.096,0.499,0.503,-36.560,12.146,78.430
0.084,0.536,0.616,-19.531,-29.236,62.500
0.007,0.502,0.857,5.554,-74.036,17.273
-0.128,0.283,1.427,16.785,-72.144,3.357
-0.120,0.268,1.591,18.250,-31.616,5.127
-0.081,0.396,1.526,18.372,-8.057,12.390
-0.047,0.449,1.413,18.555,19.531,17.578
0.017,0.429,1.252,9.766,25.085,12.939
0.030,0.379,1.175,-1.892,28.992,7.019
0.054,0.311,1.083,-16.418,31.799,-0.183
0.062,0.296,1.062,-18.250,30.884,-0.977
0.066,0.281,1.047,-15.625,28.809,0.122
0.039,0.237,1.038,-14.587,28.809,0.549
0.021,0.210,1.032,-19.470,32.166,2.136
0.006,0.209,0.991,-20.935,33.752,4.578
0.010,0.223,0.971,-15.808,35.034,8.179
0.030,0.224,0.902,-14.160,34.790,9.399
0.043,0.221,0.873,-13.123,33.936,10.498
0.060,0.218,0.844,-8.728,31.433,11.841
0.080,0.227,0.810,-7.812,28.076,12.024
0.076,0.243,0.821,-16.174,18.616,10.254
0.079,0.287,0.876,-18.188,14.832,8.545
0.084,0.292,0.901,-13.855,11.414,4.150
0.095,0.251,0.909,-11.902,11.780,2.197
0.103,0.235,0.890,-11.414,12.756,2.075
0.120,0.260,0.870,-10.315,13.855,4.700
0.128,0.285,0.849,-10.864,13.428,4.822
0.132,0.302,0.813,-10.559,5.127,3.235
0.132,0.298,0.831,-8.179,-2.136,2.014
0.124,0.272,0.876,-2.014,-9.277,-2.441
0.098,0.227,0.932,-1.160,-8.423,-3.296
0.099,0.224,0.944,-3.235,-4.211,-0.977
0.105,0.254,0.962,-7.019,-1.831,-0.061
0.110,0.273,0.951,-11.108,0.427,0.366
0.115,0.284,0.949,-8.362,0.000,0.244

-0.165,0.397,2.343,108.398,288.818,-49.377
-0.249,0.394,2.438,141.174,431.213,-37.292
-0.321,0.379,2.272,148.804,501.892,-34.180
-0.341,0.307,2.103,145.691,598.633,-28.137
-0.370,0.146,1.765,134.216,629.639,-19.348
-0.354,0.110,1.602,117.737,674.988,8.240
-0.216,0.134,1.404,114.868,695.557,22.888
-0.137,0.152,1.328,112.244,715.271,35.950
-0.096,0.125,1.216,94.482,743.042,50.537
-0.103,-0.013,0.687,80.627,750.000,57.678
-0.111,-0.055,0.333,59.692,737.732,78.979
-0.259,-0.030,-0.114,48.401,718.994,87.463
-0.399,-0.018,-0.190,38.086,685.791,88.989
-0.725,0.033,-0.354,48.218,671.875,89.783
-0.828,0.047,-0.464,79.712,636.963,107.544
-0.925,0.012,-0.587,78.796,609.680,118.958
-0.976,0.043,-0.571,63.904,575.684,126.953
-1.067,0.101,-0.535,22.278,502.380,123.657
-1.413,0.151,-0.382,12.695,468.323,110.229
-1.596,0.112,-0.307,21.667,413.574,81.970
-1.961,0.030,-0.269,24.414,390.625,73.669
-2.128,0.020,-0.361,29.053,345.337,68.542
-2.395,0.042,-0.831,34.058,315.186,66.772
-2.461,0.173,-1.316,58.167,212.708,44.861
-2.129,0.627,-2.106,100.037,119.263,12.085
-1.651,0.427,-1.490,94.849,25.330,-14.099
-1.170,0.056,-0.622,-58.594,-37.292,5.615
-0.190,-0.204,0.101,-62.561,-20.691,23.865
0.049,0.026,-0.114,22.705,30.334,26.184
-0.418,0.524,-0.801,62.622,38.818,6.042
-0.775,0.550,-0.945,85.754,5.981,-42.419
-1.078,0.339,-0.786,68.726,-11.658,-50.293
-1.059,0.219,-0.712,24.902,-17.090,-33.875
-0.826,0.196,-0.669,2.869,-11.841,-18.738
-0.686,0.293,-0.672,-29.602,-4.333,1.648
-0.547,0.387,-0.704,-37.415,-2.625,0.000
-0.570,0.335,-0.737,-39.246,-1.526,-7.019
-0.666,0.197,-0.803,-21.912,-4.700,-18.494
-0.684,0.188,-0.803,-14.099,-6.470,-17.700
-0.698,0.221,-0.772,-14.893,-6.348,-9.827
-0.680,0.335,-0.707,-18.494,-4.639,-7.935
-0.651,0.368,-0.710,-19.531,-2.319,-12.207
-0.639,0.321,-0.748,-16.846,-3.357,-15.930
-0.641,0.272,-0.766,-12.268,-4.944,-14.099
-0.575,0.247,-0.737,-12.268,-5.005,-8.972
-0.564,0.271,-0.695,-7.874,-7.202,-6.409
-0.630,0.296,-0.672,-1.526,-7.019,-10.315
-0.674,0.287,-0.711,5.310,-8.667,-12.756
-0.699,0.273,-0.815,-1.587,-11.658,-13.916
-0.737,0.276,-0.828,-11.536,-30.334,-15.076
-0.959,0.269,-0.782,-14.343,-42.419,-14.160
-1.159,0.271,-0.761,-16.174,-67.078,-18.005
-1.574,0.356,-0.856,-11.047,-85.754,-24.902
-1.726,0.449,-1.001,0.427,-149.475,-55.725
-1.957,0.608,-1.389,1.709,-198.059,-78.064
-2.036,0.639,-1.514,1.282,-255.737,-100.769
-2.099,0.658,-1.439,-4.028,-377.319,-146.301
-2.146,0.638,-1.297,-15.747,-438.171,-160.156
-2.212,0.586,-1.172,-44.067,-564.209,-153.381
-2.198,0.459,-1.073,-52.429,-622.253,-147.949
-2.108,0.378,-1.102,-87.830,-722.839,-143.433
-1.972,0.301,-1.145,-123.413,-771.240,-135.132
-1.961,0.342,-1.069,-187.439,-874.817,-101.746
-2.131,0.489,-0.798,-205.017,-923.645,-87.219
-2.351,0.557,-0.609,-194.397,-1016.540,-74.097
-3.145,0.663,-0.029,-158.752,-1069.214,-77.332
-3.711,0.577,0.612,-34.180,-1210.999,-144.043
-4.000,0.154,2.347,-15.320,-1232.117,-186.523
-3.886,-0.058,3.135,-104.126,-993.652,-179.871
-2.597,-0.182,3.447,-150.208,-785.156,-147.034
-2.035,-0.234,2.903,-195.374,-481.873,-73.853
-1.549,-0.184,2.387,-194.702,-447.510,-35.706
-1.413,0.122,2.880,-195.007,-446.594,2.808
-0.837,0.907,3.669,-185.791,-338.135,46.936
-0.520,0.867,3.395,-148.621,-225.464,33.081
-0.306,0.504,2.834,-50.171,-55.420,-8.179
-0.076,0.017,1.915,-32.471,-23.987,-1.343
-0.001,0.088,1.650,-53.345,-5.432,35.889
0.019,0.347,1.181,-65.491,-2.075,46.021
-0.007,0.475,1.073,-49.255,-10.132,40.466
-0.113,0.519,1.137,-10.559,-16.602,31.738
-0.135,0.461,1.227,58.350,-16.235,17.883
-0.131,0.278,1.310,63.660,-7.385,11.414
-0.111,0.191,1.244,19.165,10.437,12.329
-0.060,0.279,1.108,-10.925,10.071,20.386
-0.048,0.409,1.112,-29.175,4.883,26.733
-0.050,0.490,1.134,-23.010,-3.296,20.691
-0.056,0.448,1.172,-14.038,-1.709,12.939
-0.056,0.391,1.161,-1.160,8.118,3.113
-0.056,0.282,1.112,4.150,14.221,1.831
-0.053,0.242,1.072,2.380,26.001,4.089
-0.039,0.231,1.007,-5.005,28.442,6.348
-0.031,0.245,0.983,-19.226,27.039,8.728
-0.039,0.264,0.918,-19.348,25.757,8.423
-0.041,0.271,0.889,-14.709,24.292,8.057
-0.036,0.273,0.869,-0.671,19.653,6.592
-0.026,0.216,0.845,3.052,18.005,5.249
-0.016,0.208,0.836,-2.991,17.029,6.287
0.003,0.238,0.821,-1.404,15.198,6.470
0.005,0.247,0.833,9.521,8.179,6.165
0.004,0.246,0.869,12.024,4.944,5.676
-0.001,0.239,0.883,5.981,1.038,2.991
0.000,0.231,0.916,1.465,0.000,2.502
0.006,0.226,0.931,-0.244,-0.427,2.808
0.011,0.220,0.944,1.831,2.441,4.089
0.010,0.214,0.936,2.014,5.005,4.211
0.009,0.230,0.916,-3.357,4.761,4.944
0.011,0.287,0.892,-5.371,0.793,4.211
0.013,0.270,0.900,-0.366,-6.653,-1.160
0.004,0.176,0.909,0.610,-7.935,-1.831
-0.002,0.193,0.919,-2.808,-8.362,0.122
-0.012,0.268,0.972,-5.676,-8.728,3.113
-0.017,0.270,1.000,-1.160,-7.935,2.380
-0.022,0.260,1.026,2.625,-3.723,1.160
-0.019,0.234,1.029,0.183,0.000,1.221
-0.011,0.235,1.002,-5.249,6.714,3.113
0.007,0.274,0.945,-6.165,7.324,4.333
0.006,0.292,0.938,-4.883,3.418,4.150
-0.008,0.281,0.949,-3.418,0.916,3.357

-0.245,0.534,2.006,80.200,168.152,-49.316
-0.302,0.497,2.165,111.328,247.559,-48.584
-0.436,0.334,2.281,124.084,300.842,-42.114
-0.486,0.273,2.182,149.414,412.048,-13.977
-0.421,0.235,1.851,156.494,454.224,1.343
-0.359,0.231,1.708,140.015,502.808,19.226
-0.298,0.169,1.478,122.925,517.883,22.827
-0.268,0.126,1.392,108.093,530.457,26.489
-0.212,0.111,1.301,97.168,548.523,39.795
-0.095,0.174,1.216,98.572,556.335,47.302
-0.028,0.193,1.240,101.379,586.182,50.293
0.047,0.095,1.065,100.220,607.361,48.523
0.068,0.003,0.840,91.125,626.831,55.054
0.033,-0.143,0.499,83.069,621.643,67.688
-0.031,-0.175,0.388,69.946,614.136,85.266
-0.132,-0.192,0.269,34.119,602.295,121.460
-0.374,-0.123,0.075,12.146,596.069,136.780
-0.475,-0.051,0.060,-14.587,588.318,145.203
-0.793,0.004,0.002,-5.127,590.088,134.766
-0.957,-0.010,-0.120,43.884,598.755,127.625
-1.241,-0.025,-0.533,61.707,592.590,135.315
-1.303,-0.004,-0.688,83.740,543.152,153.687
-1.421,0.076,-0.750,79.834,503.662,162.476
-1.526,0.114,-0.701,68.481,433.960,166.382
-1.798,0.220,-0.625,55.908,410.278,159.424
-2.004,0.265,-0.652,40.039,389.709,145.752
-2.261,0.295,-0.759,50.842,342.957,102.295
-2.759,0.715,-1.828,91.492,296.875,81.787
-2.626,1.159,-2.697,289.062,59.387,-9.033
-1.498,0.801,-1.987,219.238,-15.320,-35.217
-0.952,0.301,-1.177,-151.123,16.418,12.451
-0.025,-0.190,-0.097,-189.941,11.475,43.152
0.141,-0.192,0.292,-79.712,21.667,65.369
-0.192,0.233,0.262,-53.711,62.073,62.134
-0.534,0.592,-0.398,-17.212,92.896,46.692
-0.990,0.762,-1.640,90.271,34.058,-19.409
-0.982,0.554,-1.541,58.228,-11.169,-39.124
-0.944,0.312,-1.075,-23.071,-10.315,-32.776
-0.762,0.162,-0.305,-27.771,-1.099,-10.559
-0.614,0.293,-0.359,-32.776,12.512,10.803
-0.494,0.492,-0.820,-38.940,15.076,1.892
-0.525,0.429,-0.916,-50.049,8.545,-19.226
-0.622,0.224,-0.820,-49.255,4.761,-21.667
-0.662,0.200,-0.752,-21.240,1.587,-11.292
-0.710,0.327,-0.715,-5.798,3.052,-4.822
-0.667,0.392,-0.734,0.977,5.859,-9.766
-0.549,0.364,-0.761,-0.854,4.456,-17.822
-0.505,0.306,-0.765,5.371,-0.305,-22.522
-0.547,0.281,-0.743,12.024,-2.075,-18.860
-0.621,0.318,-0.724,19.165,-3.113,-15.076
-0.672,0.368,-0.701,20.874,-5.188,-18.127
-0.674,0.405,-0.701,16.724,-6.226,-21.484
-0.634,0.373,-0.730,-0.488,-9.216,-19.653
-0.585,0.324,-0.756,-9.949,-12.024,-18.311
-0.625,0.342,-0.737,-12.390,-21.362,-20.386
-0.808,0.381,-0.703,-3.662,-26.917,-27.100
-0.922,0.381,-0.701,1.404,-41.992,-38.574
-1.181,0.422,-0.808,-0.977,-52.246,-44.006
-1.324,0.450,-0.930,-12.085,-89.966,-62.500
-1.473,0.581,-1.299,-14.404,-124.756,-72.144
-1.484,0.657,-1.400,-7.324,-218.750,-97.595
-1.623,0.740,-1.317,-8.362,-264.526,-115.723
-1.721,0.738,-1.221,-9.766,-345.398,-161.804
-1.835,0.666,-1.106,-13.733,-383.972,-186.340
-1.792,0.626,-1.112,-34.485,-455.261,-232.056
-1.610,0.571,-1.188,-56.030,-491.272,-249.512
-1.515,0.538,-1.212,-85.022,-531.067,-259.216
-1.334,0.482,-1.087,-155.334,-618.591,-243.652
-1.286,0.458,-0.925,-182.373,-658.264,-222.046
-1.272,0.423,-0.742,-208.557,-702.576,-162.659
-1.274,0.364,-0.250,-222.412,-702.087,-128.113
-1.210,0.380,0.029,-263.550,-711.365,-83.008
-1.329,0.267,0.492,-238.342,-770.813,-104.919
-1.516,0.121,0.667,-142.456,-924.927,-175.598
-1.919,-0.046,1.280,-170.959,-948.608,-152.222
-2.094,0.010,1.788,-303.406,-906.616,-54.565
-1.779,0.449,2.812,-352.173,-824.463,-10.071
-1.353,0.670,3.008,-281.921,-559.753,22.095
-0.744,0.516,2.631,-189.453,-437.622,8.850
-0.628,0.255,2.316,-106.018,-304.871,4.211
-0.421,0.184,2.030,-130.554,-278.259,24.353
-0.298,0.414,2.114,-162.354,-258.484,45.288
-0.178,0.601,2.211,-136.047,-197.021,45.288
-0.031,0.490,2.099,-87.280,-156.250,32.043
